===========================================
timestamp_ms,heading,roll,pitch,qw,qx,qy,qz,gx,gy,gz,ax,ay,az,lin_x,lin_y,lin_z,grav_x,grav_y,grav_z,mag_x,mag_y,mag_z,temp
59014,10.5,-5.125,-10.875,0.9902344,-0.090271,0.05389404,-0.09136963,1.5625,-1.75,2.8125,-0.41,-1.58,9.49,0.37,0.23,-0.05,-0.88,-1.84,9.59,11.6875,-4.0625,-52.1875,12
59054,10.375,-5.1875,-10.8125,0.9904175,-0.08972168,0.05432129,-0.09014893,0.1875,-0.0625,4.375,-1.13,-1.63,9.64,-0.23,0.19,0.05,-0.89,-1.83,9.59,11.6875,-4.0625,-52.1875,12
59098,10.1875,-5.1875,-10.8125,0.9905396,-0.08953857,0.05438232,-0.08843994,-0.125,-0.0625,3.3125,-1.28,-1.72,9.66,-0.38,0.11,0.07,-0.9,-1.83,9.59,11.6875,-4.375,-51.375,12
59189,10.1875,-5.25,-10.8125,0.9905396,-0.08953857,0.05432129,-0.08831787,-0.1875,-0.9375,-2.75,-1.11,-1.72,9.78,-0.21,0.1,0.19,-0.9,-1.83,9.59,11.6875,-4.375,-51.0625,12
59286,10.3125,-5.375,-10.875,0.9902954,-0.09020996,0.05560303,-0.08966064,-0.9375,0.6875,-0.5,-1.0,-1.66,9.7,-0.08,0.18,0.11,-0.92,-1.85,9.58,11.25,-4.375,-52.0625,12
59435,10.1875,-5.75,-11.25,0.9899902,-0.09283447,0.05895996,-0.08843994,-3.0,2.125,-0.8125,-1.4,-1.99,9.54,-0.41,-0.08,-0.02,-0.98,-1.9,9.56,11.25,-4.375,-51.375,12
60022,8.75,-4.875,-11.4375,0.9911499,-0.09613037,0.05059814,-0.07635498,-0.3125,-1.75,-4.5625,-0.9599999,-1.72,9.7,-0.12,0.21,0.13,-0.83,-1.94,9.57,11.6875,-4.0,-51.375,12
60115,9.125,-4.8125,-11.625,0.9908447,-0.09735107,0.0501709,-0.0791626,-4.3125,0.9375,-3.875,-0.91,-2.16,9.32,-0.12,-0.25,-0.29,-0.82,-1.97,9.57,11.25,-3.5625,-52.1875,12
60208,9.5625,-4.6875,-11.625,0.9904785,-0.09741211,0.04968262,-0.08331299,3.125,-0.125,-4.875,-0.85,-1.73,9.5,-0.04,0.23,-0.06,-0.8,-1.97,9.57,11.6875,-3.5625,-51.6875,12
===========================================
timestamp_ms,heading,roll,pitch,qw,qx,qy,qz,gx,gy,gz,ax,ay,az,lin_x,lin_y,lin_z,grav_x,grav_y,grav_z,mag_x,mag_y,mag_z,temp
1017,0.625,-9.3125,-0.0625,0.9967041,-0.0003051758,0.08117676,-0.005493164,-1.5625,72.75,-4.1875,-0.75,10.01,0.01,0.94,10.03,-9.64,-1.7,-0.01,9.65,-11.875,-49.75,-12.5625,9
1114,1.0,-13.375,-0.5625,0.993103,-0.004089355,0.1167603,-0.008789063,-6.8125,20.5625,-4.0,-1.58,9.52,0.33,0.69,9.62,-9.2,-2.3,-0.11,9.53,-12.875,-49.375,-14.375,9
1367,1.5625,-17.125,-0.1875,0.9887085,6.103516e-05,0.149353,-0.0135498,-1.1875,-45.125,11.625,-2.26,10.32,0.52,0.55,10.35,-8.86,-2.82,-0.03,9.39,-7.5,-30.375,-7.6875,9
2559,349.625,-4.4375,93.125,0.6846313,0.7160645,0.1213379,0.06188965,1.875,-59.625,6.0,-0.85,11.31,-0.84,-0.12,1.48,-0.35,-0.75,9.76,-0.53,-10.5625,-32.0,0.875,9
2696,354.6875,-3.3125,92.5,0.6906738,0.7185669,0.07507324,0.03192139,-1.8125,-31.5625,9.625,-0.26,10.18,-0.67,0.31,0.26,-0.05,-0.55,9.78,-0.42,-9.75,-30.875,1.0,9
2840,358.25,-3.25,91.9375,0.6946411,0.7174072,0.05206299,0.01049805,-3.5625,-13.75,-6.125,-0.51,9.43,-0.45,0.06,-0.34,-0.12,-0.57,9.78,-0.33,-9.6875,-31.25,3.25,10
3570,12.1875,-10.3125,93.3125,0.6826782,0.7250366,0.05395508,-0.07318115,-4.875,-2.25,-4.1875,-1.75,9.78,-0.79,0.01,0.15,-0.23,-1.76,9.62,-0.55,-0.5625,-34.0,9.6875,10
3714,12.3125,-10.3125,92.5625,0.6873169,0.7205811,0.05255127,-0.07446289,-4.5625,6.375,6.1875,-2.23,9.97,-0.56,-0.48,0.33,-0.13,-1.75,9.63,-0.42,-1.1875,-34.5,9.25,10
4564,345.125,2.0,92.5,0.6856689,0.7192383,0.06793213,0.08947754,-15.6875,16.75,15.6875,0.08,8.9,-0.33,-0.28,-0.88,0.06,0.37,9.79,-0.4,-14.875,-36.0,8.375,10
4709,344.1875,3.375,91.25,0.6923828,0.7128906,0.05566406,0.09606934,-1.75,20.0,2.625,0.49,10.25,-1.34,-0.09,0.46,-1.11,0.58,9.78,-0.22,-14.75,-36.375,9.0625,10
4854,341.4375,2.75,90.75,0.6929932,0.7075195,0.08007813,0.1130371,-2.9375,54.3125,-14.0,0.71,9.5,-1.28,0.25,-0.28,-1.15,0.45,9.79,-0.12,-16.875,-36.875,8.1875,10
5544,346.1875,-6.0,93.5625,0.6798706,0.7102661,0.163147,0.08203125,-24.8125,91.625,-5.3125,-1.19,9.17,0.84,-0.16,-0.55,1.42,-1.03,9.73,-0.58,-7.5,-40.75,12.0625,10
5691,334.3125,-5.375,92.8125,0.6721191,0.6879272,0.2269897,0.1531982,-2.625,34.25,2.875,-0.36,9.95,-0.04,-1.26,0.21,0.38,-0.91,9.75,-0.49,-11.1875,-40.75,6.25,10
6573,359.375,-4.25,92.8125,0.6893921,0.7221069,0.05749512,0.003417969,-25.25,66.5,-7.25,1.16,7.69,3.47,1.89,-2.07,3.96,-0.73,9.76,-0.45,-7.75,-38.5,14.6875,11
6766,330.25,-6.1875,93.4375,0.6625366,0.6793213,0.262085,0.1758423,21.5,5.9375,-12.125,-2.18,11.13,-0.9700001,-1.1,1.41,-0.35,-1.08,9.72,-0.61,-12.25,-40.6875,6.6875,11
7516,23.875,-4.875,91.25,0.6838379,0.7097168,-0.08740234,-0.1448364,4.4375,40.6875,25.5,-4.52,6.33,-2.69,-1.47,-2.21,-4.78,-0.79,9.77,-0.22,-0.25,-39.25,16.1875,11
7645,2.0,-3.0,89.3125,0.7108765,0.7027588,0.02514648,-0.01245117,-15.0,9.3125,-12.4375,-1.57,11.09,-0.72,-1.01,1.3,-0.85,-0.55,9.79,0.13,-6.375,-39.375,15.0625,11
7781,4.1875,-5.0625,89.0,0.7113037,0.701416,0.03601074,-0.02758789,21.3125,-17.75,-4.4375,-1.63,10.98,-0.67,-0.75,1.21,-0.8,-0.88,9.76,0.13,-8.0625,-40.5,12.1875,11
8529,342.1875,-8.875,95.4375,0.664856,0.7041016,0.2266846,0.1040039,14.75,-256.5625,13.375,0.22,10.21,1.74,1.76,0.56,2.63,-1.54,9.64,-0.88,-10.5625,-40.75,9.6875,11
8659,6.5625,-10.5625,93.75,0.6824951,0.7238159,0.09313965,-0.03930664,1.375,29.4375,-1.0,-4.81,10.25,-3.91,-3.0,0.63,-3.26,-1.8,9.61,-0.65,-5.0625,-40.5625,14.375,11
8798,341.0625,-8.0,94.1875,0.6716309,0.6984253,0.2203369,0.1119995,-42.75,190.75,-14.25,-0.13,8.89,0.13,1.24,-0.78,0.81,-1.38,9.68,-0.67,-6.5,-40.0625,13.0,11
9562,11.1875,-9.25,89.125,0.7091064,0.6998901,0.02868652,-0.08105469,13.8125,-228.3125,37.75,0.45,9.69,-0.11,1.96,0.0,-0.29,-1.51,9.68,0.18,-4.6875,-41.375,12.5625,11
9700,29.8125,-4.5625,88.3125,0.6929321,0.6856079,-0.1251831,-0.1846313,3.875,-8.0625,21.3125,1.36,8.65,4.45,2.11,-1.12,4.18,-0.74,9.77,0.27,-1.5,-40.6875,15.5,11
9843,10.0,-2.3125,88.6875,0.7143555,0.6981812,-0.01470947,-0.0446167,-22.9375,301.0,4.1875,-0.85,8.37,2.15,-0.45,-1.41,1.91,-0.4,9.79,0.24,-3.25,-40.875,15.5,11
10519,355.9375,-5.3125,84.375,0.7402344,0.6662598,0.08642578,0.02618408,-4.25,9.9375,3.625,-1.72,10.7,-0.06,-0.81,0.98,-1.02,-0.91,9.71,0.95,-9.0,-42.25,8.5625,11
10656,356.0625,-2.75,83.3125,0.7467651,0.6635132,0.04229736,0.01715088,4.6875,-180.125,26.375,1.13,10.09,1.82,1.52,0.36,0.68,-0.39,9.73,1.13,-9.375,-42.1875,7.1875,11
10800,1.625,-1.6875,85.5625,0.7337036,0.6792603,0.01074219,-0.01080322,25.5,202.25,-4.3125,-7.44,7.88,0.68,-7.13,-1.88,-0.01,-0.3,9.77,0.7,-8.25,-41.5,11.5,11
11569,285.1875,-0.6875,92.1875,0.5506592,0.5668945,0.4450073,0.4210815,-8.5,136.25,-18.375,1.07,9.61,0.29,1.2,-0.18,0.67,-0.12,9.79,-0.38,-18.25,-41.0,-0.875,11
11709,272.125,-3.5,93.8125,0.4920044,0.4937744,0.5380249,0.473938,16.1875,32.25,-11.9375,-4.22,11.61,-0.04,-3.62,1.85,0.61,-0.61,9.76,-0.67,-13.1875,-41.75,-8.1875,11
11856,293.5625,-7.1875,94.5,0.5678711,0.5579834,0.4783325,0.3705444,11.8125,14.0,-27.5,-4.11,10.4,-2.75,-2.84,0.7,-1.96,-1.27,9.69,-0.78,-11.0,-43.0,-3.5625,11
12532,282.1875,-6.1875,88.125,0.559021,0.4912109,0.4929199,0.4508057,-14.375,58.625,47.4375,1.77,3.18,1.11,2.83,-6.55,0.8,-1.06,9.74,0.3,-9.5,-42.375,-8.6875,11
12679,249.5,-5.6875,87.0625,0.4124756,0.3300781,0.6043091,0.5964355,-10.1875,51.1875,-28.625,-1.99,12.74,4.78,-0.9599999,3.0,4.28,-1.02,9.73,0.5,-5.25,-41.5625,-17.1875,11
12824,249.5625,-9.0625,89.5,0.4051514,0.3050537,0.6345215,0.583252,20.375,-36.6875,-2.75,-4.55,14.42,2.59,-3.77,4.95,1.87,-1.54,9.68,0.06,-0.25,-41.0,-16.75,11
13582,272.0,-12.125,90.5,0.5064087,0.3953857,0.5900879,0.4888916,-7.75,-186.3125,14.6875,-1.92,8.72,0.52,0.14,-0.85,0.61,-2.06,9.58,-0.08,0.5,-42.375,-12.875,11
13730,295.875,-10.875,84.25,0.6329346,0.4938965,0.4523315,0.3884277,-9.625,-110.125,-7.5,-5.75,8.92,3.2,-3.9,-0.65,2.19,-1.85,9.57,1.0,-7.375,-43.0625,-11.375,11
14580,265.6875,-13.4375,84.375,0.5032959,0.3296509,0.5863647,0.5423584,-10.125,180.5,-29.25,-1.39,10.79,3.74,0.95,1.31,2.87,-2.35,9.47,0.87,-0.75,-40.375,-18.1875,11
14730,269.1875,-16.375,84.125,0.5202637,0.3165283,0.5924683,0.5274048,-16.125,-135.5625,6.625,-3.9,10.65,0.06,-1.16,1.3,-0.9700001,-2.73,9.35,1.04,4.5,-41.375,-18.1875,11
14880,287.6875,-10.0,76.0625,0.6350708,0.4258423,0.4476929,0.463623,-16.4375,-98.875,9.125,-2.17,10.05,0.4,-0.52,0.68,-1.96,-1.65,9.37,2.37,-5.5625,-40.25,-17.75,11
15525,292.6875,-24.3125,90.375,0.5869141,0.3759766,0.6015625,0.3903198,5.5625,82.5,-69.3125,-2.91,9.09,2.27,1.13,0.16,2.34,-4.04,8.93,-0.06,5.6875,-42.75,-10.5625,11
15723,299.25,-33.9375,96.875,0.5787354,0.3173828,0.671875,0.3359375,23.8125,14.3125,-41.5625,-4.53,8.44,-2.45,0.99,0.41,-1.42,-5.53,8.02,-1.02,14.6875,-42.875,-8.75,11
15856,308.75,-39.1875,98.0625,0.6018677,0.3131104,0.6756592,0.2884521,8.75,-34.6875,-23.5,-7.63,6.24,-3.44,-1.42,-1.27,-2.37,-6.22,7.49,-1.06,19.375,-42.375,-6.25,11
16525,238.5625,-51.6875,81.8125,0.7141113,0.2537842,0.621582,0.1983032,-28.8125,-57.0,-26.5625,-10.56,7.16,-0.22,-2.84,1.19,-1.19,-7.71,5.97,0.9599999,25.875,-39.375,-10.875,11
16663,15.25,-49.875,73.5625,0.4666748,0.6392212,-0.01757813,-0.6109619,-0.3125,-35.0,5.3125,-8.17,7.32,2.69,-0.69,1.25,0.86,-7.48,6.06,1.83,27.0,-37.75,-16.375,11
16801,19.75,-49.8125,72.875,0.4437256,0.6350708,-0.04168701,-0.6308594,40.0,-22.25,-24.8125,-8.24,7.49,0.28,-0.72,1.47,-1.55,-7.51,6.02,1.83,24.25,-38.5625,-17.5,11
17554,93.8125,-35.25,64.5,0.5612793,0.5629272,-0.08728027,-0.6004028,-27.25,-31.0625,35.25,-4.48,6.86,5.89,1.12,-0.38,2.39,-5.6,7.24,3.5,14.875,-39.375,-22.1875,11
17708,96.4375,-28.9375,60.0,0.5646973,0.5106201,-0.1432495,-0.6323242,31.6875,-78.1875,-1.625,-5.55,7.59,3.52,-0.8,0.16,-0.76,-4.74,7.43,4.29,8.0625,-39.25,-26.375,11
18551,69.375,-10.125,84.875,0.6062622,0.6144409,-0.2803345,-0.4199829,-2.8125,-9.0625,14.375,-5.16,14.12,3.31,-3.43,4.5,2.45,-1.7,9.61,0.86,-6.375,-45.375,-12.375,11
18696,73.125,-9.5,84.0,0.5961304,0.5969238,-0.3040771,-0.4425049,-3.8125,-31.0625,-6.5625,-2.75,9.49,1.03,-1.12,-0.12,0.01,-1.63,9.61,1.01,-8.1875,-46.0,-11.25,11
18839,77.4375,-9.8125,82.75,0.5839233,0.5788574,-0.3201904,-0.4705811,0.125,-24.0,-1.6875,-2.57,10.1,1.15,-0.89,0.52,-0.06,-1.67,9.58,1.22,-8.1875,-45.25,-11.25,11
19567,84.8125,-8.9375,92.25,0.5115967,0.6015015,-0.3970947,-0.4677124,-16.8125,4.9375,-3.5625,-2.34,10.15,-0.24,-0.8,0.47,0.11,-1.53,9.67,-0.35,-9.5625,-46.375,-1.75,11
19714,81.8125,-8.1875,90.875,0.5302734,0.5996094,-0.3849487,-0.4594727,-4.375,10.0,14.0625,-2.53,9.7,-2.15,-1.15,0.0,-2.01,-1.37,9.7,-0.14,-10.0,-46.375,-2.5,11
20565,86.5,-7.875,88.9375,0.5195313,0.5714722,-0.4053345,-0.4890747,-7.3125,-2.3125,0.0,-1.01,10.24,-0.34,-0.04,0.28,-0.52,-1.35,9.71,0.18,-11.0625,-46.75,-4.6875,11
20713,86.1875,-8.0625,88.9375,0.5206299,0.5738525,-0.4024658,-0.4874878,6.875,-2.75,-3.3125,-0.94,8.95,2.01,0.43,-0.74,1.84,-1.38,9.7,0.15,-10.25,-47.0625,-4.25,11
20863,89.125,-8.75,89.3125,0.5064697,0.5703125,-0.4110718,-0.4992676,-2.625,30.5625,-10.75,-0.79,10.11,-0.39,0.7,0.42,-0.51,-1.52,9.68,0.1,-10.6875,-46.75,-2.875,11
21534,85.75,-6.8125,90.75,0.5142822,0.5756226,-0.4191284,-0.4780273,2.6875,-39.0625,21.8125,-1.31,10.34,0.21,-0.14,0.61,0.35,-1.16,9.73,-0.13,-10.25,-46.375,-2.875,11
21680,86.4375,-4.8125,89.4375,0.5175781,0.5515747,-0.4369507,-0.4868164,-21.0625,-13.875,5.3125,-0.87,9.81,-0.68,-0.05,0.04,-0.81,-0.82,9.77,0.13,-12.875,-45.375,-2.1875,11
21831,88.3125,-5.375,86.875,0.5198975,0.5360718,-0.4308472,-0.5066528,-2.5625,-11.0625,-7.125,-0.4,10.08,0.11,0.52,0.34,-0.41,-0.93,9.74,0.52,-13.5625,-45.25,-4.6875,11
22546,95.25,-5.875,88.6875,0.4816895,0.5216675,-0.4653931,-0.5283813,-5.0,-17.0625,0.1875,-0.93,9.61,-0.75,0.07,-0.13,-0.9700001,-1.0,9.75,0.22,-13.25,-46.0,-2.1875,11
22699,97.0,-5.5625,85.625,0.4856567,0.4981689,-0.4627075,-0.5493774,-16.8125,-14.0625,4.8125,-1.12,9.95,1.03,-0.07,0.24,0.37,-0.94,9.73,0.76,-13.5625,-46.0,-1.375,11
22852,98.125,-4.375,85.125,0.4824829,0.4810791,-0.475647,-0.5563965,1.375,-9.6875,5.75,-1.07,10.62,0.02,-0.33,0.88,-0.8,-0.73,9.74,0.82,-13.875,-46.0,-3.5625,11
23523,105.1875,-3.5625,83.0,0.4544678,0.4348145,-0.5004883,-0.5949097,-0.875,-8.25,2.9375,-0.79,9.94,1.38,-0.18,0.22,0.2,-0.6,9.71,1.18,-14.6875,-46.375,-2.1875,11
23684,105.0625,-3.0,83.375,0.4539185,0.4320068,-0.5059204,-0.5927734,3.0,-2.875,3.8125,-0.18,9.98,0.92,0.32,0.25,-0.19,-0.51,9.72,1.12,-15.0,-46.75,-1.375,11
23839,104.875,-2.625,83.125,0.4559326,0.4283447,-0.506897,-0.5930786,-3.1875,-4.5,0.0625,-0.59,9.9,0.76,-0.14,0.17,-0.4,-0.44,9.72,1.16,-15.0,-44.875,-1.0625,11
24520,105.375,-2.3125,83.125,0.453186,0.4234619,-0.5110474,-0.5950928,-1.4375,-3.125,0.375,-0.5,9.75,0.47,-0.29,0.0,-0.91,-0.39,9.72,1.17,-15.75,-45.25,-1.0625,11
24723,105.375,-2.625,82.8125,0.4545898,0.4248657,-0.506958,-0.5964966,2.375,12.0625,-8.25,0.02,9.63,0.51,0.5,-0.08,-0.7,-0.47,9.71,1.21,-16.0625,-45.25,-1.0625,11
24866,101.5625,-4.75,84.1875,0.4689331,0.4661255,-0.4823608,-0.574585,8.8125,82.25,-7.25,-0.72,9.59,0.01,0.11,-0.13,-0.93,-0.84,9.72,0.95,-15.0,-46.0,-1.375,11
25525,86.125,-8.375,80.875,0.5553589,0.5349121,-0.3685913,-0.519165,-7.125,24.25,9.0,-2.72,10.13,1.73,-1.3,0.55,0.2,-1.42,9.58,1.53,-9.5625,-46.75,-10.5,12
25667,82.875,-6.4375,81.75,0.5661621,0.5372314,-0.3748169,-0.5003662,13.375,4.375,14.6875,-1.52,9.84,1.99,-0.44,0.2,0.62,-1.08,9.64,1.36,-11.75,-45.25,-11.375,12
25811,79.6875,-4.6875,83.875,0.5706177,0.546814,-0.3850098,-0.4765625,8.3125,23.6875,12.625,-0.99,9.77,1.17,-0.19,0.05,0.14,-0.8,9.71,1.03,-12.875,-46.0,-8.75,12
26531,55.375,8.375,83.5625,0.6624146,0.5366821,-0.3954468,-0.3416748,0.5625,18.875,69.625,2.25,9.26,-0.48,0.7,-0.36,-1.57,1.54,9.62,1.08,-20.0625,-41.375,-12.5,11
26674,42.4375,16.4375,82.4375,0.6994019,0.5222168,-0.4054565,-0.2715454,9.0625,26.75,42.0625,2.94,9.61,-0.79,0.19,-0.19,-1.69,2.83,9.3,1.23,-25.0625,-38.1875,-13.75,11
26819,35.4375,18.5625,79.125,0.730896,0.5145264,-0.3825684,-0.2338867,-26.375,121.375,3.125,3.05,10.78,2.28,-0.04,1.66,0.44,3.09,9.12,1.84,-28.0625,-35.6875,-16.375,11
27566,28.8125,24.1875,76.3125,0.7550049,0.4848022,-0.3964844,-0.1943359,3.875,-94.9375,-5.6875,5.59,8.34,4.27,0.23,-0.39,-0.62,4.03,8.69,2.05,-28.0625,-31.5625,-23.5,12
27713,38.6875,26.8125,83.25,0.7011108,0.4619751,-0.4841309,-0.2462769,2.0,-80.25,11.75,4.47,8.33,-0.34,0.04,-0.35,-1.37,4.42,8.69,1.02,-34.1875,-31.1875,-14.25,12
28563,24.1875,32.625,69.6875,0.7831421,0.40625,-0.439209,-0.1696777,-11.3125,-98.375,40.6875,4.97,7.91,2.74,-0.42,0.2,-0.03,5.39,7.7,2.78,-31.875,-26.0625,-24.0625,12
28715,18.75,31.75,65.625,0.8175049,0.4168091,-0.376709,-0.1265259,13.1875,234.5625,-18.4375,6.01,6.05,6.3,1.01,-1.56,2.69,5.0,7.61,3.61,-37.0,-22.1875,-21.5,12
28865,1.5,9.3125,57.8125,0.8731689,0.4770508,-0.09924316,-0.01184082,19.8125,52.25,-31.125,2.82,8.36,-1.78,1.23,0.17,-6.93,1.58,8.19,5.14,-13.5,-25.75,-38.0625,12
29548,31.8125,38.25,83.875,0.7078247,0.3946533,-0.5499878,-0.2018433,14.6875,-265.0,-23.8125,5.63,5.42,1.12,-0.43,-2.23,0.3,6.07,7.65,0.81,-39.5625,-22.75,-14.6875,12
29700,63.9375,29.0625,109.375,0.505249,0.3703613,-0.7127686,-0.3154907,23.125,-116.0625,-21.125,3.13,8.95,-5.55,-1.18,1.35,-2.68,4.68,8.08,-2.98,-38.875,-26.6875,11.5625,12
29854,93.0625,19.5625,119.375,0.3564453,0.3098755,-0.7969971,-0.3764038,-15.625,-185.1875,21.125,3.95,8.71,-6.89,0.78,0.66,-2.27,3.17,8.05,-4.61,-30.75,-27.375,22.875,12
30553,159.375,-0.625,120.0,0.08929443,0.1659546,-0.8500977,-0.4916992,-26.375,-16.375,-16.3125,0.2,8.17,-6.05,0.36,-0.33,-1.18,-0.15,8.51,-4.86,-5.5625,-30.1875,35.0,12
30705,152.25,1.625,115.5,0.1279297,0.1759033,-0.8272095,-0.5181274,-26.875,24.4375,8.4375,-0.01,6.72,-4.64,-0.33,-2.13,-0.46,0.31,8.86,-4.17,-7.0,-33.0625,32.1875,12
30861,152.75,2.625,111.5625,0.1323853,0.154541,-0.8123169,-0.5465088,-28.6875,-21.9375,17.9375,-0.9,10.74,-5.1,-1.35,1.63,-1.5,0.46,9.12,-3.56,-7.75,-34.5,30.6875,12
31533,180.3125,8.0,90.875,0.002075195,0.1012573,0.7053223,0.7015991,-21.5625,14.875,-15.875,2.19,12.08,-0.62,0.85,2.37,-0.51,1.34,9.71,-0.1,-3.1875,-42.6875,19.0,12
31692,173.5625,8.0625,89.625,0.03955078,-0.0604248,-0.7023926,-0.7081299,13.1875,38.1875,13.0625,1.61,8.22,1.33,-0.38,-2.2,1.09,1.4,9.7,0.04,-4.25,-44.375,16.0625,12
31856,164.75,9.4375,91.625,0.09222412,-0.02301025,-0.7166748,-0.690918,19.25,39.4375,3.9375,1.3,7.14,-1.09,-0.31,-2.51,-0.79,1.61,9.66,-0.29,-7.875,-42.5625,17.5625,12
32540,189.5625,-2.0625,101.9375,0.04779053,0.02947998,0.7775269,0.6262817,17.125,91.75,-22.5625,-1.42,10.86,-3.43,-1.05,1.28,-1.36,-0.36,9.57,-2.06,5.0625,-39.375,23.75,12
32710,174.75,0.3125,102.5625,0.02838135,0.03033447,-0.7797241,-0.6247559,-19.3125,63.5,13.0,-0.7,8.53,-1.49,-0.81,-1.04,0.6,0.1,9.57,-2.1,0.375,-39.0,26.375,12
32874,145.4375,3.625,100.5625,0.1896362,0.1802979,-0.7478638,-0.6101074,19.4375,254.6875,-40.6875,3.86,9.71,-2.87,3.24,0.09,-1.07,0.64,9.61,-1.8,-8.1875,-40.6875,23.1875,12
33540,147.75,-1.875,103.125,0.1724854,0.2431641,-0.744812,-0.5969238,-13.6875,199.5,-29.875,1.56,7.27,0.03,1.86,-2.26,2.25,-0.3,9.54,-2.22,-2.0625,-39.1875,25.25,12
33683,129.9375,0.75,105.5,0.2559814,0.3262329,-0.7263184,-0.5481567,11.75,-92.1875,49.5,-2.29,6.77,-2.98,-2.43,-2.67,-0.36,0.13,9.44,-2.62,-13.25,-40.25,20.875,12
33833,168.375,-1.5625,109.125,0.05865479,0.1065063,-0.8077393,-0.5768433,35.375,-408.1875,47.3125,5.69,9.16,-7.31,5.97,-0.1,-4.09,-0.27,9.26,-3.21,-8.5625,-37.0625,27.5,12
34540,196.125,-9.0,108.0625,0.08270264,-0.01977539,0.8079834,0.5830078,-41.125,-27.375,-19.0,-1.2,9.31,-3.92,0.37,0.09,-0.99,-1.58,9.22,-2.93,6.5,-34.25,31.0,12
34702,155.375,-2.4375,104.6875,0.1588135,0.2281494,-0.7573242,-0.5909424,-30.875,466.75,-36.75,-0.73,7.73,-0.56,-0.45,-1.74,1.9,-0.28,9.48,-2.46,5.0,-37.1875,28.0625,12
34853,119.0625,4.6875,103.5625,0.3148804,0.333374,-0.7098389,-0.534668,-30.125,-39.8125,61.3125,-1.34,8.02,-2.37,-2.23,-1.47,-0.11,0.88,9.5,-2.25,-16.5625,-39.0,20.0625,12
35544,116.875,-3.6875,112.4375,0.2838135,0.4743042,-0.6818237,-0.479126,-1.0,-161.0,52.5,-5.94,9.25,-6.66,-5.28,0.2,-2.94,-0.66,9.04,-3.72,-13.75,-39.1875,22.5,12
35695,175.6875,-12.3125,109.6875,0.005554199,-0.1912231,0.7897339,0.5828857,44.125,-425.3125,36.75,1.64,9.8,-6.03,3.91,0.79,-2.89,-2.27,9.0,-3.14,-6.6875,-37.5,27.875,12
35846,213.375,-21.5,106.0625,0.1751099,-0.07806396,0.7891846,0.5834961,1.375,1.1875,4.3125,-4.7,8.46,-3.62,-1.09,-0.3,-1.1,-3.6,8.76,-2.52,17.75,-34.5,28.375,12
36549,153.1875,-6.1875,104.8125,0.1414185,0.2689819,-0.7449951,-0.593811,-67.4375,447.25,-57.625,-4.66,11.48,-4.45,-3.59,2.06,-1.95,-1.02,9.43,-2.45,3.375,-37.375,27.5,12
36705,126.3125,-9.25,105.1875,0.272522,0.4732056,-0.6379395,-0.5429688,16.0625,-3.4375,-29.4375,-8.68,7.32,-4.9,-7.05,-1.99,-2.34,-1.63,9.32,-2.56,-9.25,-42.1875,20.5625,12
36858,155.625,-11.4375,101.1875,0.1341553,0.3123779,-0.7056274,-0.6217041,9.375,-351.9375,67.5625,-5.4,6.24,-2.29,-3.44,-3.17,-0.42,-1.95,9.42,-1.87,-6.375,-42.1875,21.25,12
37548,165.9375,-4.625,107.0,0.06988525,0.1665039,-0.7874756,-0.5892944,23.4375,-16.0,-27.125,-3.97,10.61,-7.59,-3.13,1.28,-4.69,-0.84,9.32,-2.9,-6.375,-38.5,28.0,12
37704,139.1875,-2.5,104.0625,0.2142944,0.3081665,-0.7258301,-0.5764771,-53.9375,248.5,-46.875,0.53,10.16,-3.41,0.93,0.64,-1.09,-0.4,9.51,-2.32,-4.5625,-37.6875,28.6875,12
37861,123.6875,-5.125,103.8125,0.2910767,0.43396,-0.656311,-0.5441895,13.0625,-66.875,-16.875,-7.88,6.97,-7.26,-6.99,-2.5,-4.92,-0.88,9.48,-2.33,-12.875,-42.0625,18.75,12
38552,140.3125,-5.875,98.125,0.2224731,0.3289795,-0.6798706,-0.6165161,4.0625,-140.25,19.875,-4.31,9.28,-3.7,-3.3,-0.36,-2.32,-1.01,9.65,-1.35,-10.0,-43.5625,17.0,12
38715,174.8125,-6.9375,97.1875,0.02966309,0.1251831,-0.739502,-0.6607666,23.875,-90.1875,-22.375,0.95,10.52,-3.5,0.11,1.14,-2.27,-1.25,9.64,-1.24,-0.25,-41.6875,22.0625,12
38870,177.125,-9.4375,96.3125,0.01647949,0.1416016,-0.7312012,-0.6670532,-18.75,4.0,-15.5625,1.55,10.94,-2.05,3.17,1.32,-0.98,-1.61,9.61,-1.07,3.375,-41.375,22.1875,12
39602,178.375,-3.5,101.25,0.008728027,0.0592041,-0.770813,-0.6342773,-36.0,290.125,1.6875,-0.36,11.45,-5.14,0.24,1.85,-3.22,-0.6,9.59,-1.91,7.25,-38.0625,26.875,12
39766,140.25,-1.75,97.5,0.2237549,0.2770386,-0.6992188,-0.6199341,-12.0625,135.0625,-39.5625,-4.12,7.18,-1.22,-2.18,-2.99,-0.56,-0.33,9.71,-1.27,-10.75,-41.375,20.375,12
40575,144.25,-5.6875,98.1875,0.2006836,0.3028564,-0.6925049,-0.62323,-18.5,-25.4375,22.5,-10.04,7.12,-4.05,-9.07,-2.53,-2.65,-0.9700001,9.65,-1.39,-7.75,-42.75,21.5,12
40741,161.125,-2.0625,95.5,0.09820557,0.1323242,-0.7277222,-0.6658325,-7.0,-228.9375,40.5,-4.74,10.56,-3.37,-4.41,0.8,-2.45,-0.32,9.75,-0.92,-7.75,-42.375,20.375,12
41529,153.75,0.125,102.0,0.1428223,0.1741943,-0.7573853,-0.612854,-1.0,-407.8125,56.8125,-0.85,10.95,-6.21,-0.51,1.18,-4.38,-0.02,9.59,-2.03,-12.0625,-40.25,23.75,12
41695,208.6875,-9.0,98.0,0.1629028,0.06890869,0.7512207,0.6359253,-47.5,-51.75,-79.0,-9.06,12.21,-4.61,-7.52,2.62,-3.25,-1.54,9.58,-1.35,7.6875,-39.875,27.0,12
42617,171.875,0.6875,97.1875,0.04656982,0.04302979,-0.7490845,-0.6594238,-21.4375,31.3125,-7.5,1.3,8.97,0.47,1.17,-0.74,1.71,0.12,9.72,-1.23,-2.5,-41.0,25.0,12
42745,185.4375,-2.0625,94.875,0.04248047,0.0144043,0.7349243,0.6766968,-23.8125,-143.4375,-24.25,0.05,10.29,-4.74,0.47,0.53,-3.95,-0.42,9.76,-0.79,0.375,-42.0625,24.25,12
42872,205.4375,-6.5,90.625,0.1549072,0.07653809,0.7067871,0.6859741,-13.5625,-58.6875,-27.875,-1.43,8.72,1.1,-0.26,-1.01,1.18,-1.16,9.73,-0.07,11.1875,-42.375,19.875,12
43608,209.75,-4.9375,84.875,0.1895752,0.116333,0.6651001,0.7128296,-20.375,-18.1875,-14.875,-1.37,9.56,0.4,-0.52,-0.16,-0.45,-0.86,9.72,0.9,11.5625,-43.5625,15.5,12
43739,212.0625,-6.6875,82.75,0.2072754,0.1063843,0.652832,0.7208252,-10.5625,-20.875,-13.125,-1.68,8.83,2.03,-0.53,-0.82,0.8,-1.16,9.65,1.24,12.6875,-43.875,13.25,12
43867,215.9375,-7.9375,82.9375,0.236145,0.1187744,0.6531982,0.7095337,30.0625,-78.9375,-15.9375,-2.58,8.32,5.2,-1.21,-1.31,4.04,-1.37,9.64,1.16,14.75,-43.875,12.5625,12
44535,220.9375,-2.1875,100.625,0.2233276,0.2407837,0.730957,0.5982056,-36.4375,2.75,5.5625,0.71,9.43,-4.23,1.07,-0.2,-2.48,-0.36,9.64,-1.75,13.0,-38.5,23.875,12
44665,222.9375,-2.5,96.75,0.243042,0.2427979,0.7072144,0.6179199,-12.5625,10.25,-8.25,-1.64,8.71,0.52,-1.2,-1.02,1.66,-0.44,9.73,-1.13,13.75,-40.5625,21.0,12
44796,221.1875,-3.25,96.375,0.2347412,0.2219849,0.7115479,0.6239624,-0.25,20.125,-7.625,-0.77,9.16,-1.15,-0.2,-0.56,-0.06,-0.56,9.72,-1.09,14.5,-40.25,21.0,12
45570,224.3125,4.125,84.5,0.2786255,0.2977295,0.6010742,0.6873169,-31.1875,10.9375,12.0625,0.33,8.99,1.31,-0.39,-0.73,0.33,0.72,9.73,0.98,11.1875,-44.5,10.25,12
45705,221.4375,6.4375,81.5625,0.2678833,0.2992554,0.5810547,0.7078857,-16.75,-9.8125,28.6875,0.8,9.4,1.46,-0.35,-0.22,0.01,1.15,9.62,1.45,8.6875,-45.6875,8.375,12
45843,219.375,11.6875,79.875,0.2579956,0.3373413,0.5480957,0.7205811,-8.5,-22.3125,37.875,2.04,9.28,2.77,0.05,-0.16,1.08,2.06,9.43,1.68,5.75,-46.75,5.1875,12
46522,181.375,43.0625,101.875,0.007995605,0.5307007,0.5419922,0.6516113,-11.75,8.9375,65.3125,6.14,6.97,-2.3,-0.55,-0.03,-0.82,6.69,7.0,-1.47,-15.875,-39.1875,19.375,12
46658,264.0,48.875,98.75,0.03479004,-0.5357666,-0.5130615,-0.6697388,4.875,14.4375,15.0625,8.57,6.78,-0.36,1.16,0.43,0.6,7.4,6.35,-0.9700001,-22.6875,-37.0625,19.375,12
46797,257.8125,50.125,94.0,0.07305908,-0.5038452,-0.5184326,-0.6870117,14.25,74.0,6.0,6.64,6.05,-1.38,-0.38,-0.28,-1.35,7.54,6.25,-0.37,-26.375,-36.375,17.1875,12
47508,162.8125,44.0625,88.1875,0.1066284,-0.40625,-0.5690918,-0.7069092,30.375,76.875,-62.5,8.67,6.2,-0.04,1.93,-0.91,-0.31,6.73,7.12,0.26,-26.6875,-37.25,16.25,12
47648,169.0,30.125,90.75,0.0670166,-0.2972412,-0.6463013,-0.699585,63.5625,70.6875,-127.0,6.03,5.22,0.02,1.29,-3.35,0.17,4.74,8.58,-0.14,-20.5,-39.375,16.25,12
47790,177.75,11.5625,98.625,0.01275635,-0.1395264,-0.7445679,-0.6526489,79.1875,-13.1875,-140.75,1.78,10.74,-3.68,0.03,1.21,-2.11,1.74,9.52,-1.57,-8.25,-41.0,22.0,12
48522,184.8125,-47.75,155.5,0.3265991,-0.3393555,0.8311768,0.2954102,16.8125,-4.0625,-59.8125,-8.59,1.69,-5.94,-1.3,-0.94,0.05,-7.29,2.64,-6.0,27.1875,-3.875,40.375,12
48661,196.0625,-51.25,163.75,0.3571167,-0.3685913,0.8151855,0.2686157,5.0,-0.8125,-37.625,-7.43,2.07,-5.08,0.22,0.41,0.8,-7.66,1.65,-5.89,27.5,2.6875,39.25,12
48806,207.4375,-56.3125,172.5,0.4055786,-0.3903809,0.7889404,0.2462769,-1.0,-48.1875,-56.8125,-6.3,0.36,-5.65,1.85,-0.34,-0.26,-8.16,0.7,-5.39,29.0625,6.6875,38.5,12
49548,228.125,-57.875,-111.8125,0.5916748,-0.602356,0.4856567,0.2263184,-2.375,-2.8125,-15.8125,-8.44,-4.91,-1.83,-0.13,-0.08,0.09,-8.3,-4.83,-1.93,34.25,24.0625,24.75,12
49696,229.875,-56.0,-111.5,0.5922852,-0.6124878,0.4768066,0.2160645,-2.0625,-6.75,-13.75,-7.54,-5.05,-2.33,0.58,0.04,-0.32,-8.13,-5.09,-2.01,33.875,24.875,25.1875,12
49846,230.0625,-54.75,-110.5,0.59375,-0.6229248,0.4616089,0.215271,-1.625,-1.6875,-7.1875,-7.69,-5.35,-2.11,0.31,-0.05,-0.13,-8.0,-5.3,-1.98,32.75,25.875,25.875,12
50516,230.5625,-52.0,-111.0,0.5877075,-0.6469116,0.4379272,0.2106323,-7.875,-11.125,-13.75,-7.12,-5.52,-2.16,0.58,0.12,0.0,-7.71,-5.64,-2.16,31.6875,27.0,25.5,12
50716,230.625,-49.625,-110.0,0.5877075,-0.6654053,0.409668,0.2097778,-4.5625,-8.0,-14.125,-7.55,-5.87,-2.0,-0.09,0.1,0.16,-7.46,-5.98,-2.16,31.0,27.6875,25.5,12
50851,231.1875,-48.5625,-108.875,0.5912476,-0.6693115,0.3989258,0.2081299,2.6875,2.375,-5.625,-7.52,-6.09,-1.98,-0.08,0.11,0.03,-7.35,-6.14,-2.09,30.25,28.0625,26.6875,12
51515,229.6875,-51.375,-106.0,0.604187,-0.6463013,0.4101563,0.2214966,19.625,-29.9375,42.25,-10.34,-7.5,-0.32,-2.63,-1.67,1.3,-7.71,-5.82,-1.62,29.875,29.1875,25.1875,12
51658,219.6875,-61.5,-79.5,0.6708374,-0.53302,0.4072876,0.3162231,79.5625,-49.5625,64.375,-5.36,-5.96,1.78,3.29,-1.47,0.8,-8.66,-4.48,0.98,38.1875,27.0,18.25,12
51795,220.625,-69.375,-80.625,0.6605835,-0.4855347,0.4855347,0.3034668,44.625,-2.0625,52.4375,-9.6,-4.53,-1.1,-0.18,-1.05,-1.94,-9.21,-3.31,0.59,41.5,23.0,15.25,12
52508,213.0625,-78.9375,-63.1875,0.6480103,-0.4191284,0.5302734,0.3510132,-28.0625,-2.875,-5.25,-9.32,-2.67,4.05,0.3,-0.98,3.2,-9.62,-1.68,0.84,46.75,14.25,11.6875,12
52647,212.75,-78.625,-72.0,0.6392822,-0.4348755,0.5297241,0.3486938,1.0,5.8125,-3.3125,-9.49,-1.44,0.56,0.12,0.38,-0.02,-9.61,-1.83,0.58,46.75,15.25,13.1875,12
52781,212.1875,-78.5625,-79.25,0.6304321,-0.4472046,0.5306396,0.3479004,-32.0,9.75,-4.8125,-8.92,-2.63,-0.7,0.68,-0.72,-1.06,-9.61,-1.9,0.36,46.0625,16.0625,13.1875,12
53555,234.0625,-79.8125,118.5625,0.6437378,-0.1157227,0.7271118,0.2086792,64.625,2.6875,6.1875,-9.92,0.39,-0.57,-0.27,-1.12,0.24,-9.65,1.51,-0.84,48.25,8.375,11.6875,12
53694,239.6875,-77.8125,122.125,0.6431274,-0.0625,0.743042,0.1741943,45.625,1.6875,23.9375,-10.55,1.41,-2.1,-0.9700001,-0.33,-1.0,-9.58,1.74,-1.09,47.875,9.75,11.6875,12
54569,250.8125,-63.6875,115.75,0.6265869,0.1917725,0.7479248,0.1057739,41.3125,-10.125,-11.625,-8.13,2.78,-1.61,0.66,-1.09,0.28,-8.8,3.87,-1.89,50.5,-2.1875,8.875,12
54714,262.625,-66.4375,120.5,0.6300659,0.2250366,0.7421265,0.04052734,66.4375,1.75,-9.5625,-6.81,4.13,1.41,2.17,0.76,3.4,-8.99,3.37,-1.98,50.5,1.0,6.25,12
54864,274.375,-65.0,136.0,0.5895386,0.2778931,0.7580566,-0.02276611,69.125,34.125,4.625,-8.71,6.68,-1.62,0.17,3.8,1.35,-8.88,2.87,-2.97,50.5,2.875,6.6875,12
55517,209.8125,-57.9375,95.75,0.5951538,0.02319336,0.7254639,0.3449097,-106.125,-12.0625,30.8125,-9.22,3.55,-0.02,-0.91,-1.62,0.49,-8.28,5.23,-0.42,47.75,-7.375,13.25,12
55661,199.25,-53.625,88.75,0.5804443,0.012146,0.7024536,0.4116821,-3.625,-26.4375,25.8125,-8.72,4.46,1.38,-0.85,-1.37,1.22,-7.87,5.84,0.16,47.875,-13.1875,12.1875,12
55807,201.6875,-51.0,92.5625,0.5767822,0.05987549,0.7146606,0.3911743,60.375,1.5,12.0,-5.51,4.35,0.64,2.1,-1.8,0.92,-7.62,6.15,-0.28,47.375,-16.375,10.75,12
56523,224.0625,-63.875,108.25,0.6045532,0.02612305,0.7538452,0.2560425,-32.0,-53.375,-23.0,-7.96,3.44,-1.17,0.87,-0.62,0.07,-8.83,4.06,-1.25,48.5,-3.0,14.75,12
56672,224.25,-67.3125,97.625,0.6347656,-0.004699707,0.7249756,0.267395,-21.875,-12.9375,-15.0625,-10.07,4.13,-0.71,-1.01,0.41,-0.25,-9.06,3.72,-0.46,50.0,-1.0625,11.75,12
56821,224.75,-69.0,92.125,0.6484375,-0.02062988,0.7114868,0.2698364,-2.25,-22.375,-3.625,-9.57,3.15,0.39,-0.41,-0.34,0.48,-9.16,3.49,-0.09,49.1875,-0.75,10.0,12
57553,202.875,-57.3125,83.9375,0.6057739,-0.01263428,0.6867065,0.4016724,-50.375,2.0,10.75,-7.5,6.56,-0.11,0.74,1.29,-0.71,-8.24,5.26,0.6,49.1875,-11.5625,8.875,12
57704,197.75,-56.5,75.5625,0.6091919,-0.0401001,0.6555176,0.444458,-39.5625,-2.4375,0.375,-5.97,4.66,1.92,2.2,-0.55,0.53,-8.18,5.22,1.38,48.875,-13.75,7.5,12
58547,199.625,-61.3125,103.5,0.5445557,-0.09320068,0.7398682,0.3838501,16.5625,69.6875,-21.625,-8.19,4.72,-1.87,0.41,0.18,-0.66,-8.6,4.54,-1.21,47.375,-8.0,17.0,12
58698,199.1875,-59.9375,114.0,0.5102539,-0.1022339,0.772522,0.3638916,29.4375,57.625,11.8125,-8.67,4.91,-3.86,-0.21,0.42,-1.76,-8.46,4.49,-2.1,45.875,-6.75,22.0625,12
58853,201.25,-58.25,122.4375,0.4945068,-0.09539795,0.7949829,0.3382568,13.125,58.6875,-9.3125,-7.87,4.91,-2.79,0.46,0.56,-0.02,-8.32,4.32,-2.86,42.5625,-5.375,23.875,12
59527,229.25,-65.25,60.5,0.7278442,0.01593018,0.6300659,0.2701416,17.5625,-59.5625,9.25,-6.06,2.3,4.92,2.82,-1.28,2.82,-8.88,3.58,2.09,51.25,0.375,1.6875,12
59726,243.5625,-59.5,39.5625,0.8118896,0.07073975,0.5473633,0.1903687,16.875,-103.3125,-53.8125,-10.5,4.3,-1.58,-2.09,1.2,-5.56,-8.41,3.1,3.97,49.75,1.5,-8.5625,12
59866,246.5,-53.0,28.4375,0.8560181,0.06756592,0.4805908,0.1780396,2.5625,-23.0625,5.25,-9.12,2.46,5.37,-1.29,-0.36,0.18,-7.82,2.82,5.19,45.375,4.6875,-18.875,12
60531,340.125,-17.5,22.1875,0.9563599,0.156311,0.1826782,0.1659546,0.625,-28.5625,-12.5,-2.72,3.69,8.56,0.18,0.16,-0.11,-2.91,3.52,8.67,22.5625,1.0,-41.0625,12
60672,342.0625,-15.375,22.0625,0.9610596,0.1630249,0.1639404,0.1514893,4.875,-30.125,-4.125,-2.11,3.38,7.08,0.49,-0.17,-1.67,-2.6,3.56,8.75,20.25,1.375,-42.6875,12
60809,342.25,-10.5625,22.25,0.9654541,0.1740112,0.1220703,0.1505737,3.875,-32.5,9.375,-0.46,3.15,7.86,1.28,-0.51,-1.05,-1.75,3.66,8.92,16.0,1.0,-44.5,12
61579,340.75,7.3125,15.125,0.9754028,0.1397705,-0.04174805,0.1651611,-6.25,4.25,-5.875,-0.61,2.0,10.9,-1.85,-0.52,1.51,1.24,2.53,9.39,0.5,5.6875,-46.75,12
61721,341.0625,7.625,14.9375,0.9758911,0.1384888,-0.04534912,0.1625977,10.6875,-0.0625,-2.8125,-0.19,1.81,10.42,-1.5,-0.7,1.03,1.3,2.52,9.38,-0.5625,5.6875,-46.75,12
62568,336.75,24.9375,23.875,0.9366455,0.232605,-0.1775513,0.192627,-1.75,5.0,0.625,5.11,4.08,6.54,0.89,0.6,-1.62,4.13,3.59,8.13,-14.0,-1.875,-44.6875,12
62710,337.8125,24.4375,24.3125,0.9384766,0.234375,-0.1746826,0.1837769,6.5,0.0,-14.5625,4.74,2.99,8.68,0.6,-0.56,0.68,4.04,3.7,8.12,-13.1875,-1.0625,-44.6875,12
62849,341.75,19.625,28.4375,0.9439087,0.2596436,-0.1366577,0.1513672,28.875,10.625,-53.875,2.92,3.35,8.59,-0.37,-1.04,0.47,3.24,4.47,8.1,-10.375,-5.0625,-45.0625,12
63505,339.8125,13.625,71.4375,0.7930908,0.5901489,-0.04486084,0.1436768,58.5625,-7.8125,27.4375,1.21,10.39,1.96,-1.14,1.34,-0.9700001,2.36,9.05,2.93,-7.1875,-38.0,-29.0625,12
63652,335.75,15.75,77.25,0.7610474,0.6262207,-0.04418945,0.1633301,30.25,10.5,4.25,2.59,7.62,0.86,-0.07,-1.58,-1.16,2.66,9.21,2.03,-9.375,-40.875,-25.875,12
63795,333.1875,15.8125,80.3125,0.7398682,0.6486816,-0.03131104,0.1755371,23.375,-20.8125,1.3125,3.65,9.57,1.73,0.9700001,0.26,0.19,2.68,9.3,1.53,-8.1875,-42.0,-22.6875,12
64525,353.75,1.9375,83.3125,0.7457275,0.664917,0.01318359,0.04040527,12.8125,-34.25,-15.0,0.05,11.95,1.71,-0.26,2.21,0.6,0.31,9.73,1.1,-0.1875,-43.6875,-22.0,12
64677,359.25,0.6875,84.9375,0.7372437,0.6755981,-0.006164551,0.002563477,4.125,-29.9375,-5.1875,-0.88,8.76,-0.36,-1.0,-1.0,-1.21,0.12,9.76,0.85,0.75,-45.0625,-21.5625,12
64828,4.4375,1.25,84.4375,0.7404785,0.6697998,-0.04492188,-0.03234863,-14.5,-60.5,0.375,-0.44,7.24,1.89,-0.66,-2.51,0.92,0.22,9.75,0.9599999,-1.375,-44.0,-20.875,12
65553,41.4375,-0.4375,53.125,0.8363647,0.420166,-0.1541748,-0.3165894,-31.8125,13.8125,-21.5625,1.02,9.31,3.32,1.1,1.46,-2.55,-0.12,7.81,5.91,-9.6875,-29.5625,-36.0,12
65706,39.75,-4.875,50.875,0.8485718,0.4191284,-0.1008911,-0.3068237,-4.375,45.6875,2.375,-0.76,12.55,6.12,0.12,4.97,-0.02,-0.88,7.57,6.15,-5.75,-28.5,-38.5,12
66551,38.9375,3.5,63.375,0.8018799,0.4824829,-0.2090454,-0.2837524,-51.25,-42.625,-27.25,1.39,7.53,1.44,0.79,-1.21,-2.93,0.6,8.75,4.38,-13.25,-35.5625,-29.6875,12
66701,45.5625,2.0,56.0,0.8137207,0.4251099,-0.2003784,-0.342041,-62.25,-16.125,-27.5,1.31,8.07,0.95,0.9599999,-0.05,-4.51,0.34,8.12,5.47,-13.25,-32.6875,-31.5,12
66856,46.625,-0.5,48.25,0.8378906,0.3775635,-0.1571655,-0.3614502,-52.0,11.5625,-3.3125,-2.48,12.09,8.96,-2.17,3.61,1.82,-0.11,7.26,6.58,-11.1875,-26.875,-38.75,12
67527,31.5,-2.1875,33.875,0.9204102,0.2862549,-0.05950928,-0.2596436,-28.75,15.5,1.5625,-0.02,7.29,9.36,0.64,1.02,0.91,-0.39,5.42,8.15,-7.5625,-13.5,-45.75,12
67683,32.3125,-3.4375,29.3125,0.9286499,0.25177,-0.0402832,-0.2694702,-23.3125,6.625,-16.125,1.08,3.87,5.86,1.67,-0.92,-2.66,-0.59,4.79,8.53,-7.1875,-8.75,-46.5,12
67838,35.25,-4.6875,26.875,0.9260254,0.2340088,-0.02984619,-0.2946777,-10.5,14.3125,-20.625,-0.05,6.2,7.92,0.78,1.8,-0.8,-0.84,4.4,8.72,-7.1875,-7.6875,-46.1875,12
68533,32.875,-4.0,38.25,0.9054565,0.3248291,-0.05651855,-0.267334,4.8125,5.8125,-0.6875,-0.46,2.0,7.74,0.23,-4.05,0.06,-0.69,6.06,7.67,-5.375,-15.6875,-44.0,12
68749,36.75,-4.4375,33.8125,0.9072876,0.288208,-0.05279541,-0.3016968,-39.125,-5.625,-26.6875,-1.28,4.34,8.06,-0.5,-1.04,-0.09,-0.78,5.38,8.15,-7.5625,-15.0,-44.0,12
69552,37.5625,-4.875,31.1875,0.9109497,0.2682495,-0.04437256,-0.3101807,50.75,1.375,44.125,-2.13,1.91,6.97,-1.33,-3.22,-1.34,-0.8,5.14,8.31,-5.6875,-8.0625,-45.75,12
69693,33.6875,-2.0625,37.25,0.9066772,0.3114014,-0.07434082,-0.2746582,32.6875,-7.5,15.5625,-1.4,2.3,10.46,-1.07,-3.67,2.69,-0.33,5.98,7.76,-7.875,-13.875,-44.375,13
69837,33.8125,-2.4375,40.25,0.8980103,0.3358765,-0.078125,-0.2731934,5.75,18.5,-10.8125,0.28,5.82,7.45,0.71,-0.51,-0.01,-0.42,6.33,7.47,-8.5,-16.6875,-42.5625,13
70533,33.1875,-12.5,30.3125,0.9197388,0.2786255,0.03485107,-0.2741699,33.3125,7.5625,45.375,-3.35,4.31,6.56,-1.25,-0.58,-1.66,-2.1,4.9,8.23,2.25,-8.0625,-47.375,13
70679,26.0625,-7.8125,36.75,0.9224243,0.3215942,-0.0003662109,-0.2138062,39.75,-16.75,59.25,-3.21,4.08,6.87,-1.87,-1.73,-0.9,-1.25,5.88,7.74,0.0625,-12.75,-45.1875,13
70823,20.1875,-2.0,41.875,0.9192505,0.3552856,-0.04418945,-0.1636963,27.4375,-2.9375,38.4375,-0.65,4.94,7.04,-0.35,-1.63,-0.21,-0.3,6.58,7.26,-3.5,-17.0625,-45.1875,13
71523,37.5,-12.75,20.0,0.9268188,0.197937,0.05187988,-0.3148804,-28.9375,31.0,-21.5625,-3.36,8.04,12.21,-1.35,4.78,3.35,-2.21,3.23,8.98,-2.0,-4.0,-47.375,13
71669,37.75,-15.625,19.1875,0.9248657,0.1983643,0.07623291,-0.3154907,7.625,-22.0625,10.1875,-3.79,5.41,10.39,-1.18,2.28,1.47,-2.6,3.12,8.92,2.75,-1.0625,-47.75,13
71817,35.6875,-11.625,21.875,0.9298706,0.2097778,0.0413208,-0.2993164,27.1875,-13.25,27.75,-2.76,2.13,7.54,-0.81,-1.49,-1.35,-1.94,3.63,8.89,0.1875,-1.75,-47.0,13
72525,37.625,-12.5,25.4375,0.9179077,0.2410278,0.03625488,-0.3131104,-20.25,-15.0,-41.875,-1.22,6.09,7.08,0.94,2.17,-1.64,-2.14,4.07,8.66,-0.0625,-7.5,-46.25,13
72676,41.9375,-14.3125,22.1875,0.9091797,0.2213745,0.0512085,-0.348938,-19.75,1.3125,-20.5625,-2.97,7.98,10.47,-0.88,4.48,2.4,-2.43,3.55,8.8,-0.0625,-5.0,-48.875,13
72822,42.125,-15.125,20.125,0.9108887,0.2069702,0.06365967,-0.3513794,-3.125,10.6875,11.875,-4.31,4.23,9.53,-1.75,0.9700001,0.64,-2.56,3.25,8.88,-0.0625,-3.5,-47.0,13
73555,43.25,-13.5,15.8125,0.9143677,0.1691895,0.06079102,-0.3627319,-25.4375,3.625,-43.4375,-1.06,3.67,6.84,0.93,1.16,-2.3,-2.32,2.54,9.18,-1.6875,-1.6875,-46.5625,13
73707,48.625,-17.375,10.25,0.8970947,0.1414185,0.1027832,-0.4057617,-29.8125,19.125,-35.5,-3.21,4.98,8.86,-0.25,3.37,-0.34,-2.96,1.6,9.2,-0.1875,1.875,-47.0,13
73860,50.6875,-17.875,5.5,0.8913574,0.1082764,0.1229248,-0.4226074,-17.0,19.4375,-5.4375,-5.24,3.39,10.18,-2.2,2.51,0.89,-3.04,0.87,9.28,1.25,5.1875,-45.875,13
74519,41.5,-14.4375,18.25,0.9159546,0.1900024,0.06433105,-0.3475342,2.5,13.5,-14.5625,-1.8,2.77,8.38,0.66,-0.19,-0.62,-2.47,2.97,9.01,-0.875,-1.0625,-47.0625,13
74672,44.5,-14.5,16.8125,0.90802,0.1801758,0.06512451,-0.3726196,-8.25,2.125,-23.6875,-0.77,3.79,7.14,1.7,1.06,-1.93,-2.47,2.73,9.08,0.5625,-0.75,-47.375,13
74824,48.3125,-15.5625,14.3125,0.8968506,0.1669312,0.0748291,-0.40271,-9.25,4.875,-28.3125,-1.1,4.53,7.07,1.52,2.19,-2.07,-2.63,2.34,9.15,-0.0625,0.0,-46.5625,13
75564,42.5625,-15.1875,19.1875,0.9112549,0.1998291,0.06433105,-0.354248,-0.9375,-17.0625,15.5625,-2.81,0.54,10.17,-0.27,-2.57,1.23,-2.53,3.12,8.94,0.5625,-2.5625,-47.875,13
75723,42.375,-13.25,18.25,0.9143677,0.1860352,0.05212402,-0.355835,-12.875,-13.3125,-7.625,-2.84,3.55,11.16,-0.61,0.58,2.08,-2.23,2.97,9.07,-0.5,-2.1875,-47.0625,13
75881,44.1875,-13.0625,15.3125,0.9122925,0.1644897,0.05749512,-0.3706055,-16.6875,10.6875,-16.8125,-2.05,3.14,7.48,0.19,0.65,-1.72,-2.24,2.49,9.21,-1.875,0.0,-47.875,13
76529,39.1875,-12.9375,9.375,0.9328003,0.1140137,0.07965088,-0.3325195,28.1875,1.875,48.875,-4.71,-0.37,8.51,-2.51,-1.94,-0.91,-2.19,1.63,9.41,0.5625,6.5,-46.75,13
76687,32.9375,-13.25,15.4375,0.9438477,0.15979,0.07446289,-0.279541,28.5625,13.5,33.9375,-2.52,-0.39,9.22,-0.27,-2.94,0.02,-2.25,2.54,9.19,1.6875,2.875,-47.1875,13
76857,30.3125,-14.625,20.375,0.9423828,0.2006226,0.08001709,-0.2554932,18.625,23.75,-2.625,-0.93,1.95,9.89,1.55,-1.35,1.0,-2.52,3.33,8.87,3.0625,0.25,-46.375,13
77529,44.9375,-17.8125,11.9375,0.9080811,0.1522827,0.1057739,-0.3755493,4.875,-37.5625,5.625,-5.6,2.18,9.46,-2.59,0.25,0.32,-2.94,1.94,9.14,5.25,2.875,-46.75,13
77670,42.875,-13.4375,13.625,0.9177856,0.1517944,0.06750488,-0.3605957,16.625,-11.8125,31.125,-4.02,1.51,7.64,-1.73,-0.74,-1.61,-2.26,2.29,9.26,-0.0625,2.0625,-47.5625,13
77812,38.375,-10.875,17.8125,0.928833,0.1759644,0.04064941,-0.3235474,27.4375,-11.375,39.625,-3.3,1.98,9.8,-1.49,-1.01,0.64,-1.81,3.0,9.15,-0.875,0.6875,-46.75,13
78528,34.8125,-11.1875,25.0625,0.927124,0.2332764,0.03302002,-0.2915039,-15.3125,9.625,-11.0625,-3.66,9.14,11.75,-1.72,5.08,3.03,-1.93,4.05,8.71,0.0,-6.875,-47.1875,13
78674,35.4375,-13.0,23.1875,0.9271851,0.2232666,0.04992676,-0.2966919,-5.5625,5.0625,-1.3125,-2.32,2.27,7.6,-0.6,-1.44,-1.38,-2.22,3.76,8.77,1.375,-5.0625,-46.75,13
78820,34.4375,-12.125,23.5625,0.9299316,0.2237549,0.0435791,-0.2885742,4.1875,-1.875,12.375,-3.56,3.69,7.18,-1.5,-0.14,-1.6,-2.06,3.83,8.78,1.375,-5.0625,-47.1875,13
79601,52.0,-15.375,3.375,0.8900757,0.08477783,0.1077881,-0.4346313,-22.5625,14.4375,-28.625,-3.57,4.18,10.71,-0.9700001,3.62,1.27,-2.63,0.51,9.43,-0.6875,7.25,-47.25,13
79753,52.625,-16.0,1.0,0.8875732,0.06945801,0.1209106,-0.4390869,-3.3125,16.5,7.5625,-3.93,3.86,10.44,-1.01,3.31,0.77,-2.72,0.17,9.41,-1.1875,9.375,-45.75,13
80545,40.6875,-9.875,10.125,0.9303589,0.1119995,0.05090332,-0.345459,-22.5,5.5,-9.625,-1.33,3.87,9.18,0.38,2.29,-0.45,-1.69,1.66,9.51,-2.5,3.875,-46.875,13
80695,41.4375,-10.25,6.875,0.9297485,0.08734131,0.06286621,-0.3520508,-16.625,2.4375,-7.5625,-1.0,3.3,8.57,0.88,2.21,-1.27,-1.76,1.13,9.58,-2.0625,6.5,-46.875,13
80849,41.8125,-13.0,5.1875,0.9269409,0.08251953,0.090271,-0.3546753,-5.125,-2.625,-0.25,-3.23,4.52,15.16,-1.02,3.65,5.65,-2.21,0.86,9.51,-1.375,7.875,-46.875,13
81515,37.875,-11.375,16.3125,0.9317017,0.164978,0.04937744,-0.3198853,-23.5625,-5.6875,-17.125,-0.45,2.14,8.4,1.52,-0.4,-0.78,-1.93,2.65,9.23,0.0625,-0.375,-46.875,13
81674,41.125,-11.6875,10.9375,0.927063,0.1242676,0.06292725,-0.3481445,-31.375,9.9375,-25.0625,-1.92,3.1,9.64,0.06,1.27,0.21,-1.99,1.82,9.42,-1.375,1.375,-47.25,13
81832,44.3125,-12.875,6.5625,0.918457,0.09344482,0.08422852,-0.375,-16.25,4.3125,-23.875,-1.94,2.91,8.09,0.25,1.84,-1.39,-2.2,1.06,9.49,-0.6875,6.5,-45.75,13
82520,42.3125,-8.125,18.125,0.9186401,0.1719971,0.01043701,-0.3555908,9.9375,-1.625,8.0,-2.78,0.76,8.68,-1.4,-2.27,-0.53,-1.38,3.04,9.21,-3.875,-1.5625,-47.0,13
82681,42.75,-8.9375,16.875,0.918396,0.1641235,0.02038574,-0.359436,-23.3125,20.0,-12.375,0.04,2.33,7.35,1.6,-0.43,-1.92,-1.55,2.77,9.27,-4.25,-1.875,-46.6875,13
82836,45.125,-10.4375,11.5625,0.914917,0.1274414,0.04626465,-0.380188,-35.875,25.75,-23.1875,-0.22,3.18,8.41,1.55,1.24,-1.03,-1.78,1.94,9.44,-3.1875,0.1875,-47.375,13
83561,40.625,-10.3125,2.25,0.9337158,0.04962158,0.07775879,-0.3458862,54.0,-24.0625,44.8125,-3.52,-1.1,8.92,-1.8,-1.58,-0.72,-1.71,0.48,9.64,-1.375,11.75,-46.375,13
83722,34.6875,-9.6875,12.8125,0.9450684,0.1311646,0.04846191,-0.2954102,58.6875,7.875,36.75,-1.54,0.32,8.0,0.11,-1.92,-1.39,-1.65,2.25,9.39,-2.0625,6.375,-48.1875,13
84575,46.8125,-19.1875,8.1875,0.9022217,0.1286621,0.1261597,-0.3918457,-5.8125,-5.0,-14.375,-3.69,3.38,8.16,-0.47,2.07,-1.0,-3.22,1.3,9.16,4.0625,3.5,-47.25,13
84739,47.1875,-15.0,10.1875,0.9049683,0.131897,0.08569336,-0.3953247,32.0,-5.875,16.0625,-5.8,1.17,8.71,-3.26,-0.5,-0.6,-2.54,1.67,9.32,1.5625,4.1875,-48.0,13
85558,36.5,-5.375,33.6875,0.907959,0.2894287,-0.04302979,-0.2999268,-6.25,4.125,-3.6875,-0.46,6.47,5.51,0.47,1.07,-2.61,-0.93,5.4,8.12,-3.5,-14.875,-45.375,13
85728,36.0,-6.3125,32.9375,0.9108887,0.2861328,-0.03173828,-0.2957153,-2.625,4.0,2.125,-2.09,8.68,10.13,-0.99,3.38,1.95,-1.09,5.29,8.18,-3.5,-13.75,-46.5,13
86622,29.3125,-2.875,34.1875,0.9242554,0.2911987,-0.04876709,-0.2421265,-39.375,7.0,-13.0,0.21,4.49,6.24,0.71,-1.01,-1.84,-0.52,5.45,8.13,-4.1875,-15.5625,-45.0,13
86786,30.8125,-5.625,27.5625,0.9351807,0.2422485,-0.01422119,-0.2579956,-47.75,1.5,-17.875,-0.41,6.91,6.42,0.56,2.47,-2.26,-0.98,4.44,8.68,-3.0625,-9.75,-46.5,13
87530,24.375,-5.875,28.8125,0.9451904,0.2537842,-0.001586914,-0.2055054,5.0,-18.4375,-9.375,-2.32,3.72,9.85,-1.32,-0.98,1.31,-0.99,4.71,8.54,-1.5,-9.0625,-47.0,13
87654,28.25,-5.375,27.8125,0.9401855,0.2443848,-0.01159668,-0.2371216,-14.5,-0.1875,-40.5,-0.26,4.84,6.44,0.65,0.28,-2.19,-0.9599999,4.53,8.64,-3.6875,-9.75,-47.6875,13
87784,34.125,-8.625,24.4375,0.9315796,0.2236938,0.01184082,-0.286438,-24.0,-8.5625,-53.0,-1.65,3.27,7.36,-0.18,-0.74,-1.45,-1.47,4.02,8.82,-1.1875,-8.25,-47.0,13
88600,35.0,-9.8125,29.0625,0.9198608,0.2636108,0.009887695,-0.2902832,38.375,14.5625,52.6875,-2.57,2.39,6.51,-0.91,-2.37,-1.89,-1.65,4.76,8.4,-0.875,-9.5625,-47.375,13
88730,29.5,-7.6875,33.5,0.9239502,0.2946777,-0.005065918,-0.2437744,14.6875,-6.5625,30.6875,-1.06,2.11,6.17,0.21,-3.27,-1.91,-1.27,5.39,8.09,-0.875,-12.0625,-45.875,13
88861,28.0625,-6.5625,33.3125,0.9277954,0.291687,-0.01098633,-0.2323608,-22.6875,-21.3125,-8.375,-2.33,3.3,10.51,-1.22,-2.02,2.35,-1.1,5.32,8.16,-1.75,-13.0625,-44.75,13
89532,44.8125,-13.1875,1.75,0.9180908,0.0579834,0.100769,-0.3789063,0.6875,3.9375,0.5625,-4.45,3.92,13.91,-2.2,3.62,4.37,-2.24,0.29,9.54,0.375,10.0,-46.0625,13
89666,43.125,-13.75,5.5,0.9221802,0.0881958,0.09448242,-0.364563,45.4375,-16.875,30.5,-4.75,1.81,11.2,-2.54,0.88,1.88,-2.29,1.0,9.47,0.0,9.5625,-46.375,13
89799,38.625,-10.8125,14.3125,0.9321289,0.1478271,0.04919434,-0.3268433,71.25,-7.125,52.1875,-3.59,0.75,8.26,-1.83,-1.78,-1.11,-1.81,2.51,9.3,-0.75,3.0625,-47.875,13
90606,31.6875,-14.1875,24.75,0.9327393,0.236084,0.06481934,-0.2647095,-43.5625,11.8125,-43.3125,-1.36,5.96,7.99,1.04,1.97,-0.63,-2.41,3.98,8.63,0.75,-9.1875,-49.875,13
90738,36.0,-18.5,20.3125,0.9242554,0.2116089,0.1029663,-0.3005981,-15.75,-4.0625,-25.25,-3.86,9.2,12.01,-0.75,5.97,3.29,-3.11,3.22,8.72,1.375,-5.5,-47.5625,13
90873,37.5625,-18.3125,19.625,0.9212646,0.2072754,0.1002197,-0.3134766,11.375,-2.125,0.25,-3.56,3.95,8.74,-0.48,0.8,-0.01,-3.08,3.14,8.76,4.75,-3.1875,-47.5,13
91534,35.9375,-12.6875,22.5,0.9275513,0.2133789,0.0480957,-0.3030396,-39.625,-16.5625,-22.5,-1.66,2.32,7.17,0.47,-1.27,-1.69,-2.14,3.59,8.86,1.1875,-7.25,-46.25,13
91676,38.5625,-12.1875,16.0,0.9293823,0.161438,0.05737305,-0.3269043,-42.375,-5.5625,-23.375,-1.91,3.77,7.77,0.16,1.2,-1.45,-2.08,2.57,9.23,1.875,-3.0,-47.6875,13
91818,39.75,-13.375,13.25,0.9277954,0.1465454,0.07202148,-0.3354492,-30.5625,23.0,-18.4375,-2.14,4.24,9.19,0.12,2.05,-0.08,-2.27,2.19,9.28,1.1875,2.875,-47.0,13
92533,24.8125,-8.9375,30.8125,0.9388428,0.2744141,0.0223999,-0.2068481,11.875,-15.875,7.4375,-3.09,2.62,10.2,-1.59,-2.34,1.89,-1.49,4.97,8.31,1.1875,-8.0,-47.1875,13
92678,25.8125,-8.4375,30.1875,0.9384766,0.2685547,0.01959229,-0.2163696,-10.9375,28.0625,-20.5,-1.43,4.48,7.8,0.06,-0.37,-0.58,-1.49,4.85,8.38,-0.6875,-8.25,-47.5,13
92822,29.0,-10.25,27.5,0.9366455,0.2508545,0.03051758,-0.2426758,-16.25,-14.0,-31.4375,-2.48,4.5,7.05,-0.66,-0.11,-1.62,-1.76,4.42,8.56,1.5,-6.875,-48.1875,13
93570,32.1875,-11.3125,22.8125,0.9371948,0.2153931,0.04296875,-0.270874,38.375,7.0625,34.25,-2.62,0.41,6.82,-0.69,-3.31,-2.03,-1.93,3.73,8.86,1.5,-0.375,-48.25,13
93717,28.75,-10.5625,27.25,0.937561,0.2488403,0.03411865,-0.2405396,14.75,3.1875,12.5625,-1.53,-0.62,6.75,0.26,-5.06,-1.8,-1.79,4.44,8.55,1.5,-4.75,-47.25,13
93865,29.0625,-9.875,27.0,0.9378662,0.2460327,0.02783203,-0.243103,-16.5,-7.625,-14.3125,-3.02,2.66,9.14,-1.32,-1.69,0.52,-1.69,4.36,8.61,0.5625,-6.5625,-47.25,13
94541,35.6875,-13.875,21.3125,0.9287109,0.210144,0.06176758,-0.2991333,44.75,1.6875,28.1875,-4.75,4.51,10.67,-2.39,1.04,1.8,-2.35,3.46,8.86,2.375,1.0625,-47.5625,13
94687,31.8125,-10.0625,29.8125,0.9259033,0.2695923,0.01776123,-0.2641602,63.0,1.375,39.4375,-3.81,2.59,6.99,-2.12,-2.3,-1.33,-1.68,4.9,8.32,0.875,-6.0625,-47.1875,13
94837,28.1875,-7.375,38.1875,0.9147339,0.3320313,-0.01287842,-0.2298584,36.25,-8.9375,19.0625,-2.31,1.85,5.55,-1.07,-4.2,-2.04,-1.23,6.06,7.6,-2.0,-13.25,-46.0625,13
95519,40.375,-15.8125,14.3125,0.9224243,0.1616821,0.08850098,-0.3392944,-23.3125,5.9375,-12.0625,-2.92,4.94,9.32,-0.22,2.65,0.17,-2.69,2.29,9.14,1.5625,1.875,-48.0,13
95715,39.3125,-15.125,13.9375,0.9266968,0.1559448,0.08532715,-0.3310547,22.375,-3.9375,21.0625,-4.62,4.52,11.98,-2.05,2.24,2.79,-2.55,2.33,9.17,1.5625,3.25,-48.375,13
95843,36.3125,-13.0,19.1875,0.9312134,0.1951294,0.05474854,-0.3029175,49.5,-18.5,39.125,-4.14,2.65,8.83,-1.98,-0.58,-0.16,-2.15,3.23,9.0,1.25,1.875,-48.5,13
96534,35.8125,-14.3125,19.0,0.9310913,0.1893921,0.0737915,-0.3029785,-42.375,16.4375,-30.9375,-2.88,2.86,8.02,-0.4,-0.15,-0.9700001,-2.47,3.01,8.99,1.6875,-4.25,-48.0,13
96667,38.5625,-16.4375,13.1875,0.9279175,0.1531982,0.0993042,-0.3250122,-33.9375,-2.9375,-14.8125,-2.99,4.34,8.31,-0.21,2.19,-0.84,-2.78,2.09,9.16,1.6875,0.375,-47.0,13
96800,38.5625,-17.3125,10.0,0.9295654,0.1298828,0.1149902,-0.3252563,-14.375,7.5625,8.1875,-3.61,5.42,10.29,-0.68,3.79,1.08,-2.92,1.62,9.21,2.5,5.1875,-48.375,13
97554,20.6875,-9.25,28.3125,0.9505615,0.2520142,0.04174805,-0.1765137,-23.1875,35.75,-17.875,0.42,4.45,6.51,2.07,-0.1,-2.0,-1.65,4.55,8.52,0.25,-9.375,-46.875,13
97690,23.375,-11.4375,23.8125,0.9534912,0.2200928,0.05847168,-0.1973877,-33.875,-24.0625,-20.5625,-2.16,3.11,8.14,-0.24,-0.71,-0.67,-1.92,3.83,8.81,1.6875,-7.5,-47.6875,13
97829,27.625,-12.8125,19.1875,0.9516602,0.1859741,0.07092285,-0.2340088,-26.125,-2.1875,-30.375,-1.24,3.67,7.8,0.84,0.63,-1.15,-2.18,3.09,9.04,1.375,-2.875,-47.375,13
98527,40.375,-12.5625,25.125,0.9106445,0.2392578,0.03143311,-0.3353271,36.1875,-6.25,12.0,-2.99,2.55,6.76,-0.86,-1.51,-1.9,-2.13,4.06,8.66,-0.75,-6.6875,-48.0,13
98668,40.25,-12.1875,28.375,0.9054565,0.2639771,0.02020264,-0.3318481,7.6875,10.375,0.4375,-2.16,2.3,6.51,-0.08,-2.24,-1.91,-2.07,4.55,8.43,-1.0625,-10.25,-45.875,13
98808,41.3125,-13.6875,26.0625,0.9053955,0.249939,0.03668213,-0.3413086,-35.9375,0.625,-18.9375,-2.59,2.52,9.35,-0.27,-1.66,0.79,-2.32,4.19,8.55,-0.75,-10.0,-46.5625,13
99559,47.625,-20.9375,11.1875,0.8954468,0.1586304,0.1297607,-0.3952026,11.0,-20.25,26.4375,-4.68,3.84,12.0,-1.17,2.06,3.02,-3.5,1.78,8.98,5.0,2.1875,-48.0625,13
99703,43.9375,-18.8125,14.625,0.9075317,0.1750488,0.1074219,-0.366333,21.125,-5.9375,35.125,-3.55,1.57,8.24,-0.38,-0.76,-0.73,-3.14,2.39,8.97,4.1875,0.75,-47.75,13
99846,40.125,-15.0625,19.6875,0.9180908,0.2045288,0.065979,-0.3330078,30.4375,-10.0,32.0625,-4.46,2.89,7.05,-1.93,-0.35,-1.84,-2.52,3.25,8.9,2.75,-1.0,-47.75,13
100539,23.75,-11.4375,32.0,0.9365845,0.2874756,0.04443359,-0.1954956,6.6875,-8.0625,23.375,-2.34,3.95,7.23,-0.42,-1.16,-0.91,-1.91,5.11,8.14,3.1875,-10.375,-46.6875,13
100684,20.75,-10.625,32.3125,0.940918,0.2879028,0.0456543,-0.1723633,-9.75,-0.4375,17.25,-1.29,5.07,7.07,0.5,-0.07,-1.07,-1.79,5.14,8.14,3.5625,-10.375,-47.5,13
100831,18.625,-8.25,30.8125,0.9490356,0.2722778,0.03149414,-0.1557617,-5.6875,-15.5625,11.125,-0.1,6.51,8.19,1.31,1.54,-0.13,-1.39,4.96,8.33,2.75,-9.0,-47.5,13
101579,24.0,-2.875,65.875,0.8204956,0.5377808,-0.08374023,-0.1748047,54.5,-6.0,-15.4375,-1.42,8.07,3.2,-0.91,-0.89,-0.71,-0.51,8.97,3.91,-3.75,-34.25,-33.875,13
101728,27.4375,-5.125,72.75,0.7816772,0.5875244,-0.08587646,-0.190918,43.3125,-2.625,-15.75,-1.7,8.58,2.7,-0.79,-0.76,-0.11,-0.9,9.34,2.82,-2.6875,-39.375,-30.0,13
102597,42.125,-21.875,99.25,0.6085815,0.7579346,0.01446533,-0.2344971,15.6875,8.3125,-34.875,-3.49,8.41,-1.28,0.21,-0.54,0.21,-3.71,8.95,-1.49,11.25,-47.1875,-10.5625,13
102759,48.3125,-27.875,102.875,0.5779419,0.7715454,0.05841064,-0.2593994,17.875,2.5,-45.5625,-4.43,8.14,-2.14,0.21,-0.25,-0.17,-4.65,8.4,-1.96,17.0625,-45.6875,-8.0,13
103514,5.0625,-61.0625,127.8125,0.4002686,0.7619019,0.2603149,-0.437561,21.375,-6.75,-47.3125,-8.48,3.13,-3.13,0.09,-0.61,-0.22,-8.58,3.74,-2.9,40.5,-28.75,-1.375,13
103667,15.375,-66.25,137.9375,0.3588867,0.7526245,0.2878418,-0.4711304,19.375,-11.75,-36.3125,-9.68,2.09,-3.23,-0.78,-0.5,-0.3,-9.0,2.57,-2.91,44.5,-23.25,-0.375,13
103826,22.125,-68.6875,147.5,0.3287354,0.7487793,0.3041382,-0.4887085,12.0,4.1875,-12.5,-10.1,1.65,-3.37,-0.9700001,-0.25,-0.37,-9.13,1.91,-3.0,46.25,-19.375,-0.375,13
104530,29.8125,-67.625,154.875,0.2868652,0.7695923,0.2827759,-0.4954834,-0.875,-0.75,0.125,-8.99,1.46,-3.53,0.07,-0.11,-0.15,-9.06,1.58,-3.37,45.875,-20.0625,1.875,13
104727,28.4375,-67.5625,154.125,0.2930298,0.767334,0.2878418,-0.4923706,-5.0,-2.875,-1.0,-8.85,1.52,-3.22,0.2,-0.1,0.14,-9.06,1.62,-3.36,45.5625,-20.375,2.25,13
104863,28.25,-67.875,154.625,0.2946777,0.7642212,0.2931519,-0.4931641,-3.625,1.125,-7.8125,-8.89,1.51,-3.07,0.19,-0.05,0.25,-9.08,1.57,-3.33,46.25,-19.375,1.5,13
105529,33.6875,-69.875,171.125,0.270813,0.7423706,0.3447876,-0.5065918,-2.8125,6.4375,2.0,-9.43,0.41,-3.24,-0.22,-0.1,0.08,-9.2,0.52,-3.34,48.6875,-14.25,1.5,13
105668,32.4375,-68.8125,169.875,0.2731934,0.7468262,0.3463745,-0.4976807,-3.875,1.3125,1.3125,-8.68,0.43,-3.28,0.45,-0.18,0.2,-9.14,0.62,-3.48,48.6875,-14.6875,1.875,13
105807,32.625,-68.75,170.625,0.2717896,0.7459106,0.3490601,-0.4978638,0.0625,-2.75,-5.9375,-8.82,0.54,-3.62,0.31,-0.02,-0.13,-9.14,0.56,-3.49,48.0,-14.6875,1.875,13
106535,30.125,-65.6875,161.125,0.2758179,0.7745361,0.3074951,-0.4790649,2.8125,-7.125,1.4375,-8.53,1.31,-3.76,0.41,0.01,0.04,-8.94,1.3,-3.8,46.1875,-18.5625,5.1875,13
106671,31.6875,-66.125,163.0625,0.2695313,0.7732544,0.3093872,-0.4834595,5.125,4.875,-12.375,-8.65,0.6,-3.94,0.31,-0.54,-0.14,-8.96,1.12,-3.81,46.5,-18.25,3.6875,13
106812,34.9375,-64.9375,170.125,0.2495117,0.7749023,0.3283691,-0.4789429,2.125,19.5625,-21.875,-8.48,0.74,-4.29,0.5,0.03,-0.11,-8.87,0.67,-4.11,46.875,-16.0625,4.75,13
107566,34.75,-71.75,157.4375,0.2763672,0.7523804,0.2800293,-0.5282593,6.125,-11.75,20.3125,-9.88,1.66,-2.34,-0.57,0.45,0.47,-9.31,1.2,-2.81,47.25,-18.25,-0.375,13
107708,33.3125,-71.1875,148.625,0.2866821,0.7585449,0.2481079,-0.5299683,7.625,-10.5625,27.5,-9.13,0.83,-2.99,0.14,-0.85,-0.31,-9.27,1.68,-2.68,45.5,-20.0625,0.375,13
107854,31.625,-69.75,140.375,0.2952271,0.7648926,0.2189331,-0.5289917,6.875,-4.875,23.3125,-9.07,2.03,-2.53,0.12,-0.15,0.07,-9.19,2.18,-2.6,43.6875,-23.25,-0.6875,13
108539,30.625,-66.25,146.625,0.2854004,0.7850952,0.2268677,-0.5007324,-5.0,6.4375,-6.3125,-8.4,2.33,-3.71,0.57,0.17,-0.41,-8.97,2.15,-3.29,42.875,-24.375,3.0,13
108683,30.0,-66.3125,147.4375,0.2875366,0.7832642,0.2358398,-0.4981689,-4.1875,-2.8125,-3.25,-9.08,1.15,-3.5,-0.1,-0.95,-0.19,-8.98,2.11,-3.31,43.6875,-24.375,2.5625,13
108831,30.625,-66.4375,148.75,0.2839355,0.7834473,0.2385864,-0.4985962,4.625,-2.0625,-3.5625,-9.68,2.91,-3.01,-0.69,0.88,0.33,-8.99,2.02,-3.34,44.375,-23.6875,2.1875,13
109577,28.625,-60.375,154.5625,0.2684326,0.8131714,0.248291,-0.4528198,3.125,-2.5,5.75,-8.65,1.68,-3.71,0.03,-0.4,0.42,-8.52,2.08,-4.37,42.875,-24.375,7.75,13
109724,28.1875,-60.3125,153.875,0.2706909,0.8133545,0.2459717,-0.4523926,-5.5625,-0.75,-1.625,-7.92,2.41,-5.25,0.59,0.27,-0.9,-8.52,2.13,-4.35,42.5625,-23.6875,7.0,13
109876,27.0,-61.25,152.875,0.2794189,0.8060303,0.25354,-0.4560547,-12.5625,-4.3125,-7.5625,-8.7,2.56,-4.47,-0.1,0.41,-0.28,-8.6,2.14,-4.18,43.0,-23.6875,5.5,13
110517,28.1875,-62.5,156.6875,0.2755127,0.7965088,0.2784424,-0.4606323,12.125,-0.0625,-6.5625,-8.12,1.71,-3.81,0.57,-0.07,0.33,-8.7,1.77,-4.15,44.375,-21.875,5.875,13
110668,32.125,-63.0,160.5,0.258667,0.7975464,0.2789917,-0.4682007,10.25,-2.0625,-7.6875,-7.86,0.9,-4.19,0.82,-0.61,-0.01,-8.74,1.46,-4.19,45.0625,-20.75,6.25,13
110825,35.5,-64.3125,163.8125,0.2468262,0.7919312,0.2830811,-0.4815063,3.1875,-10.5625,-13.0625,-9.56,0.59,-4.65,-0.7,-0.54,-0.6,-8.85,1.13,-4.04,45.5,-19.375,5.5625,13
111545,28.625,-65.875,157.875,0.2855225,0.7727051,0.2991333,-0.4815674,-7.6875,-33.0625,-5.6875,-8.69,2.33,-4.11,0.27,0.83,-0.45,-8.97,1.5,-3.65,44.6875,-19.75,3.0,13
111705,28.25,-68.4375,156.6875,0.2954712,0.7583008,0.307312,-0.4932251,-8.4375,14.75,-2.875,-9.84,1.2,-2.58,-0.72,-0.21,0.73,-9.11,1.42,-3.32,45.75,-19.375,0.375,13
112552,13.0,-57.5625,149.625,0.3225708,0.8000488,0.3022461,-0.4055786,5.1875,22.5625,4.4375,-9.66,2.85,-4.46,-1.4,0.19,0.11,-8.25,2.65,-4.57,43.25,-23.0,2.5625,13
112710,12.5,-54.3125,152.5625,0.3071899,0.8162231,0.3043823,-0.3831177,8.875,37.4375,1.0,-7.02,2.42,-4.62,0.9,-0.11,0.41,-7.93,2.62,-5.13,44.0,-23.6875,6.25,13
113549,16.125,-51.4375,150.4375,0.2872314,0.8463745,0.234314,-0.3824463,23.375,14.75,13.5625,-6.88,3.79,-4.12,0.78,0.78,1.19,-7.64,3.0,-5.35,40.0,-27.25,8.875,13
113692,21.375,-52.4375,150.5625,0.2730103,0.8500977,0.2064209,-0.4002686,26.375,-26.0625,8.0625,-7.14,3.32,-4.83,0.63,0.39,0.37,-7.79,2.91,-5.18,39.25,-28.375,10.25,13
113831,27.875,-54.0,152.0,0.2531128,0.8515015,0.1851807,-0.4202881,22.5625,-15.3125,-0.6875,-7.21,2.87,-5.96,0.72,0.17,-0.88,-7.95,2.67,-5.07,39.6875,-27.6875,10.25,13
114530,46.3125,-59.0,168.125,0.1868896,0.8371582,0.2226563,-0.4633179,11.875,-21.6875,12.4375,-10.09,0.85,-3.2,-1.67,-0.18,1.7,-8.42,1.04,-4.91,44.375,-19.875,11.5625,13
114670,46.9375,-59.75,166.375,0.1854248,0.8381348,0.2050171,-0.4702148,11.0625,-6.4375,13.4375,-7.97,1.14,-4.89,0.49,-0.01,-0.1,-8.47,1.15,-4.79,43.6875,-21.25,11.1875,13
114811,47.75,-61.5,164.625,0.1873169,0.8325195,0.1914673,-0.4849243,9.4375,-2.8125,2.375,-8.84,1.22,-4.75,-0.22,-0.01,-0.24,-8.62,1.23,-4.5,43.0,-22.6875,9.6875,13
115571,141.625,-34.25,159.375,0.2462769,0.8889771,0.3101196,-0.2299194,-33.875,10.1875,-0.6875,-5.59,3.0,-6.68,-0.09,0.11,0.89,-5.5,2.89,-7.58,34.375,-25.5625,23.5,13
115721,140.0625,-34.1875,155.4375,0.2766113,0.8790894,0.3201904,-0.2194824,-19.875,2.0,-3.375,-5.46,3.46,-6.55,0.05,0.07,0.8,-5.52,3.39,-7.36,34.0625,-27.75,21.5625,13
115866,138.4375,-34.3125,153.9375,0.2884521,0.8726807,0.3306885,-0.2140503,-8.9375,4.125,-9.0,-5.65,3.26,-7.06,-0.11,-0.28,0.21,-5.53,3.55,-7.27,33.6875,-29.1875,19.875,13
116546,132.1875,-38.375,155.1875,0.2982178,0.8458862,0.3746338,-0.2350464,-1.4375,-2.5,3.5,-6.24,3.15,-7.0,-0.09,-0.04,-0.1,-6.09,3.22,-6.97,37.6875,-25.1875,19.5625,13
116698,77.125,-38.9375,154.1875,0.3029175,0.8474731,0.3629761,-0.2414551,0.5625,-7.9375,1.9375,-6.16,3.52,-6.7,0.01,0.21,0.14,-6.17,3.31,-6.85,36.1875,-27.0,18.0625,13
116847,79.9375,-39.6875,154.5625,0.2992554,0.8491821,0.3553467,-0.2510986,9.8125,-5.8125,-0.125,-6.39,2.91,-6.78,-0.11,-0.3,0.02,-6.27,3.22,-6.81,37.0,-26.375,18.0625,13
117531,97.8125,-43.0625,161.875,0.2570801,0.848999,0.3551025,-0.2949219,-1.125,-0.8125,-2.125,-6.78,2.0,-6.89,-0.08,-0.21,-0.09,-6.7,2.22,-6.8,39.5,-23.0625,18.5,13
117685,97.8125,-43.3125,161.8125,0.2583618,0.8475952,0.3563843,-0.2962646,-2.125,-4.0625,-2.1875,-6.76,2.93,-6.49,-0.02,0.71,0.28,-6.73,2.22,-6.77,39.0625,-22.6875,17.6875,13
117838,98.5,-43.6875,162.25,0.2576294,0.8452759,0.3600464,-0.2991943,-0.3125,0.125,-4.1875,-6.74,2.07,-6.88,0.03,-0.08,-0.13,-6.78,2.15,-6.74,39.5625,-22.6875,17.375,13
118517,97.0625,-43.9375,161.25,0.2640991,0.8436279,0.359314,-0.2991333,0.3125,3.5,-9.125,-6.25,2.61,-6.57,0.47,0.26,0.22,-6.81,2.24,-6.68,39.5625,-23.0625,18.5,13
118673,100.0625,-44.9375,163.1875,0.2570801,0.8376465,0.3704224,-0.3082886,8.5,-0.5625,-10.75,-7.01,1.98,-6.03,-0.07,0.0,0.61,-6.93,1.98,-6.64,40.6875,-22.6875,17.6875,13
118835,14.5,-46.0,165.625,0.246521,0.8336792,0.3759155,-0.3208008,12.75,-4.75,-6.1875,-7.31,1.43,-6.9,-0.25,-0.23,-0.3,-7.06,1.66,-6.59,41.0625,-20.1875,17.375,13
119551,20.375,-47.0625,168.3125,0.2329102,0.8328857,0.3736572,-0.3353271,-1.6875,0.0625,-2.5625,-6.94,1.57,-6.59,0.22,0.34,0.0,-7.18,1.34,-6.53,42.0625,-19.875,17.5,13
119718,20.8125,-47.3125,168.6875,0.2325439,0.8310547,0.3761597,-0.3374023,2.8125,-1.0,-1.3125,-7.33,1.34,-6.35,-0.11,0.04,0.15,-7.21,1.29,-6.51,42.5,-18.375,17.75,13
120553,22.75,-48.0,170.0,0.2286987,0.8270264,0.3811646,-0.3441162,0.75,0.25,-1.125,-6.96,1.7,-6.09,0.32,0.56,0.36,-7.29,1.13,-6.45,41.6875,-17.25,17.75,13
120715,24.375,-48.5625,170.875,0.2255859,0.8248901,0.3822021,-0.3501587,2.3125,-0.0625,-3.6875,-7.53,0.85,-6.8,-0.17,-0.16,-0.4,-7.35,1.01,-6.4,43.875,-17.25,17.5,13
120881,24.125,-48.625,170.9375,0.2265625,0.8235474,0.3847656,-0.3499146,-0.8125,-1.5625,0.0,-7.18,1.81,-6.16,0.17,0.79,0.23,-7.36,1.01,-6.39,43.1875,-17.25,17.5,13
121539,26.6875,-49.6875,172.0,0.2227173,0.8208008,0.382019,-0.3616333,0.0625,-7.5,-0.1875,-7.43,0.95,-5.83,0.05,0.08,0.43,-7.49,0.87,-6.26,43.1875,-15.875,17.0625,13
121702,27.75,-49.8125,172.75,0.2191162,0.8203125,0.383606,-0.3631592,-3.3125,-5.4375,-0.125,-7.25,1.4,-6.61,0.24,0.61,-0.34,-7.5,0.79,-6.26,43.875,-15.875,17.0625,13
122524,29.9375,-50.625,174.0625,0.2148438,0.8170776,0.3845825,-0.3719482,-1.3125,0.375,-0.6875,-7.51,0.75,-6.51,0.07,-0.03,-0.22,-7.58,0.63,-6.18,44.5625,-16.1875,16.6875,13
122666,29.0,-50.5625,173.625,0.2180176,0.8162231,0.3861084,-0.3704224,-2.4375,1.5,-0.875,-7.23,0.45,-6.09,0.34,-0.22,0.08,-7.57,0.68,-6.18,44.25,-15.5,15.5625,13
122816,28.6875,-50.4375,173.75,0.2182617,0.8155518,0.3890381,-0.3685913,-3.1875,2.6875,1.5,-7.76,0.82,-6.11,-0.2,0.14,0.09,-7.55,0.68,-6.21,44.25,-14.75,17.0625,13
123567,28.9375,-49.5,173.6875,0.2138672,0.8206787,0.3861084,-0.362915,4.4375,-1.4375,-3.1875,-7.18,0.9700001,-6.36,0.27,0.29,-0.03,-7.46,0.68,-6.32,43.875,-15.875,17.0625,13
123719,31.6875,-50.25,175.25,0.2074585,0.8185425,0.385376,-0.3720703,6.4375,-0.8125,0.3125,-7.53,-0.1,-6.78,0.0,-0.62,-0.53,-7.54,0.51,-6.24,43.875,-14.375,17.75,13
123873,33.375,-50.0,176.3125,0.2009888,0.8191528,0.3865356,-0.3731079,2.625,-2.0,-4.75,-7.49,0.64,-6.36,0.02,0.24,-0.08,-7.51,0.4,-6.28,44.6875,-15.0625,16.6875,13
124532,37.4375,-49.6875,177.5,0.1864014,0.8275146,0.3716431,-0.3773193,-1.375,-0.4375,0.8125,-7.07,0.17,-6.88,0.4,-0.1,-0.55,-7.48,0.27,-6.33,43.1875,-14.0,17.75,13
124685,36.5,-49.8125,176.625,0.1898804,0.8285522,0.3679199,-0.3769531,1.0,-0.0625,6.0,-7.58,0.47,-6.37,-0.09,0.11,-0.06,-7.49,0.36,-6.31,44.25,-14.75,17.75,13
124836,36.0,-49.75,176.25,0.1912231,0.8292847,0.3668213,-0.3757324,-7.5,-3.875,-0.25,-7.64,0.11,-6.52,-0.15,-0.29,-0.2,-7.48,0.4,-6.32,42.875,-14.75,18.1875,13
125577,34.875,-50.0,176.75,0.1959839,0.8218994,0.3807373,-0.3755493,4.75,0.9375,1.0625,-7.61,0.38,-6.31,-0.09,0.03,-0.02,-7.51,0.35,-6.28,43.5625,-14.75,17.5,13
125730,36.0625,-50.125,177.0625,0.1923218,0.8237305,0.3758545,-0.3783569,4.4375,-1.25,3.5,-7.18,0.22,-6.51,0.34,-0.09,-0.24,-7.53,0.31,-6.27,45.0,-14.375,16.6875,13
126511,33.75,-50.375,176.6875,0.2008057,0.8173218,0.3876343,-0.3759766,-4.875,2.25,2.4375,-7.56,0.3,-6.18,-0.01,-0.06,0.05,-7.55,0.36,-6.24,44.25,-14.375,17.0,13
126673,33.375,-50.0625,176.625,0.2009888,0.8175659,0.3897705,-0.37323,0.5625,-1.9375,-5.5,-7.34,0.49,-6.4,0.18,0.13,-0.12,-7.52,0.36,-6.28,44.5625,-14.75,17.0625,13
126835,34.1875,-50.1875,177.4375,0.1986694,0.8154297,0.3933716,-0.3753662,0.125,2.4375,0.625,-7.69,0.39,-6.39,-0.15,0.11,-0.12,-7.53,0.28,-6.26,44.25,-14.75,17.5,13
127556,37.25,-49.3125,179.25,0.1853027,0.8186035,0.3947144,-0.3738403,-4.0625,0.875,-5.4375,-7.74,-0.3,-6.48,-0.3,-0.38,-0.09,-7.43,0.07,-6.39,44.25,-13.0,17.75,13
127726,37.9375,-49.1875,-179.875,0.1825562,0.8164673,0.3996582,-0.3745728,2.875,-1.5625,-1.6875,-7.43,-0.31,-6.27,0.0,-0.3,0.12,-7.42,-0.01,-6.4,43.875,-12.1875,19.25,13
128597,37.1875,-51.9375,-177.9375,0.1948242,0.7937622,0.421875,-0.3925171,0.125,0.375,3.125,-7.67,-0.34,-6.33,0.04,-0.13,-0.29,-7.72,-0.21,-6.04,46.25,-11.1875,16.0,13
128771,37.75,-52.3125,-177.5,0.1943359,0.7921143,0.4213867,-0.3965454,4.3125,-5.1875,-2.5,-7.55,-0.19,-5.91,0.2,0.06,0.07,-7.76,-0.25,-5.98,46.25,-10.375,15.5625,13
129547,39.625,-53.125,-178.125,0.1904907,0.7998047,0.3998413,-0.4050903,-13.3125,-3.4375,8.3125,-6.48,0.21,-5.25,1.36,0.37,0.61,-7.85,-0.16,-5.87,46.25,-11.1875,16.375,13
129714,41.75,-54.375,-176.625,0.1868896,0.7958374,0.3966064,-0.4176025,21.4375,-8.125,-6.0625,-8.04,-0.51,-5.47,-0.06,-0.18,0.22,-7.97,-0.36,-5.68,45.5625,-10.375,15.5625,13
129881,45.3125,-55.25,-174.1875,0.1767578,0.793396,0.392395,-0.430481,0.5,0.125,2.5625,-8.39,-0.46,-5.89,-0.33,0.09,-0.33,-8.05,-0.56,-5.55,45.5625,-10.75,14.0625,13
130589,46.4375,-55.1875,-174.4375,0.1723633,0.798584,0.3823242,-0.4317017,1.0625,1.625,-13.375,-8.59,-0.28,-6.4,-0.54,0.26,-0.83,-8.05,-0.55,-5.57,46.25,-10.75,13.75,13
130753,46.375,-54.75,-174.3125,0.1713867,0.7988281,0.385498,-0.428772,-1.9375,6.8125,3.625,-7.09,-0.45,-5.16,0.91,0.09,0.45,-8.01,-0.55,-5.62,46.0,-9.6875,16.0,13
131571,43.75,-57.5,-175.1875,0.1898804,0.7867432,0.3853149,-0.4432373,-5.375,0.75,9.0625,-7.68,-1.6,-7.38,0.58,-1.18,-2.14,-8.27,-0.42,-5.24,46.25,-10.0,12.875,13
131719,40.5,-58.75,-176.4375,0.2055054,0.7770996,0.3933716,-0.4462891,-9.375,-10.3125,-4.3125,-8.76,-0.53,-3.49,-0.37,-0.22,1.56,-8.39,-0.3,-5.05,47.75,-11.1875,12.1875,13
132558,35.5,-51.4375,177.75,0.1987915,0.8133545,0.3868408,-0.3864136,-1.75,-4.625,18.125,-7.19,0.58,-6.7,0.53,0.42,-0.51,-7.67,0.26,-6.09,44.1875,-12.1875,17.6875,13
132752,34.0625,-50.4375,176.25,0.2002563,0.8201294,0.3805542,-0.3773804,6.125,-9.1875,-8.0625,-7.24,0.31,-6.18,0.32,-0.07,0.02,-7.57,0.38,-6.21,43.5,-13.0,16.5625,13
132877,36.5,-51.1875,178.0,0.1946411,0.815918,0.383606,-0.3862915,4.875,-2.0625,-3.6875,-7.66,-0.49,-6.11,0.04,-0.68,0.0,-7.64,0.19,-6.13,43.75,-13.375,16.5625,13
133544,24.8125,-48.5,171.6875,0.2235107,0.8222046,0.3895264,-0.3496094,-1.1875,2.0625,-2.9375,-7.41,0.82,-6.58,-0.06,-0.1,-0.16,-7.34,0.93,-6.42,43.75,-16.1875,17.375,13
133674,24.3125,-48.4375,171.5,0.2252808,0.8218994,0.3901367,-0.3485718,-5.125,-1.4375,2.6875,-7.54,0.78,-6.97,-0.2,-0.18,-0.54,-7.34,0.9599999,-6.42,43.0625,-16.875,17.0,13
133805,21.1875,-48.3125,169.5625,0.2363892,0.8221436,0.3880005,-0.3430176,-13.5,-2.6875,8.6875,-7.29,1.02,-6.69,0.03,-0.18,-0.29,-7.33,1.2,-6.4,43.0625,-16.6875,16.25,13
134521,14.375,-48.0625,168.0625,0.2550659,0.8078003,0.4174194,-0.3289185,0.375,-3.625,-10.8125,-7.62,1.24,-6.53,-0.32,-0.1,-0.12,-7.3,1.33,-6.4,43.5,-18.0,16.0,13
134713,15.0,-48.375,169.0,0.2540894,0.8029175,0.4255371,-0.3311157,-5.6875,-0.1875,1.5,-7.19,0.87,-6.76,0.13,-0.37,-0.37,-7.33,1.24,-6.38,43.0625,-15.5,16.375,13
134847,12.3125,-47.9375,167.6875,0.2616577,0.8032227,0.4264526,-0.3232422,-12.0625,3.1875,5.0625,-6.84,1.11,-7.21,0.43,-0.3,-0.79,-7.28,1.41,-6.41,43.75,-15.875,16.0,13
135557,350.5,-49.125,161.6875,0.3322144,0.7415771,0.5103149,-0.2814941,-11.9375,-9.6875,-26.5625,-7.99,1.71,-5.76,-0.55,-0.27,0.31,-7.43,1.99,-6.07,45.25,-15.5,13.0,13
135691,351.875,-50.25,164.25,0.3311157,0.7237549,0.5328369,-0.2874756,-4.0625,2.5625,-19.9375,-7.57,1.88,-6.46,-0.03,0.13,-0.47,-7.54,1.67,-6.03,46.25,-14.0,12.25,13
135826,351.625,-50.75,165.3125,0.333374,0.7122192,0.5465088,-0.2879639,-11.375,-6.375,-9.0,-8.48,1.37,-5.8,-0.87,-0.19,0.17,-7.6,1.56,-5.98,46.6875,-12.5625,11.5625,13
136629,340.25,-47.375,163.9375,0.3421631,0.6900635,0.5904541,-0.2409058,1.25,-8.6875,8.125,-7.46,1.94,-6.15,-0.23,0.1,0.21,-7.22,1.84,-6.37,45.5625,-10.25,15.375,13
136767,339.5625,-47.125,162.25,0.3445435,0.7009888,0.5766602,-0.2394409,6.1875,-7.1875,19.125,-7.05,2.18,-6.93,0.13,0.14,-0.58,-7.18,2.04,-6.34,46.6875,-11.375,15.375,13
137550,334.3125,-48.5625,162.3125,0.3641968,0.6608887,0.6149292,-0.229126,-6.6875,-1.8125,-16.3125,-7.54,1.36,-6.53,-0.18,-0.59,-0.36,-7.36,1.95,-6.17,47.0625,-9.5625,12.6875,13
137700,335.6875,-50.3125,163.875,0.3704224,0.642334,0.6268311,-0.2393799,-7.125,-11.75,-15.125,-7.73,0.79,-5.85,-0.16,-0.93,0.13,-7.56,1.72,-5.99,47.75,-8.5,12.0625,13
137837,336.6875,-51.1875,165.75,0.3701172,0.6287842,0.6389771,-0.2435303,-5.875,-2.875,-12.5625,-8.17,1.04,-5.97,-0.52,-0.45,-0.02,-7.64,1.5,-5.95,47.0,-7.1875,11.6875,13
138623,328.625,-47.0,166.6875,0.3574829,0.6033325,0.684021,-0.2008057,-15.1875,24.3125,-25.125,-6.64,1.92,-6.82,0.52,0.39,-0.32,-7.17,1.53,-6.5,46.5625,-4.5625,14.1875,13
138763,325.6875,-46.3125,168.0625,0.3562012,0.5756226,0.7115479,-0.1882935,-19.3125,-19.9375,-31.8125,-7.5,1.44,-6.07,-0.4,0.05,0.54,-7.09,1.39,-6.62,46.1875,-2.75,16.0625,13
139558,324.0,-50.75,172.875,0.3847046,0.4882813,0.7583618,-0.196167,5.5,-4.0,7.3125,-7.7,0.73,-6.51,-0.04,-0.09,-0.36,-7.6,0.76,-6.14,46.5,3.75,13.5625,13
139701,324.5,-50.625,172.5625,0.3828735,0.4957275,0.7540283,-0.1976318,1.3125,-1.4375,5.6875,-7.6,0.37,-6.38,-0.02,-0.42,-0.21,-7.58,0.79,-6.16,47.5625,4.5,14.0,13
139851,324.375,-50.5,172.1875,0.3824463,0.4992676,0.7521973,-0.1965942,-0.8125,-1.5,2.3125,-7.48,0.73,-6.45,0.08,-0.11,-0.27,-7.56,0.84,-6.17,47.5625,4.0625,13.5625,13
140536,323.875,-50.6875,172.25,0.3848267,0.4939575,0.7547607,-0.1957397,-0.5625,3.6875,4.625,-7.73,0.87,-6.26,-0.14,0.04,-0.11,-7.58,0.83,-6.15,48.25,3.0625,14.0,13
140743,322.8125,-50.125,171.0,0.383606,0.5039063,0.7501221,-0.1904907,1.25,0.4375,6.625,-7.37,0.81,-6.1,0.15,-0.17,0.1,-7.52,0.98,-6.2,47.25,2.25,14.6875,13
141604,320.9375,-50.375,169.25,0.3902588,0.507019,0.7457275,-0.185791,-2.125,1.6875,-0.875,-7.4,1.08,-6.13,0.14,-0.07,0.01,-7.55,1.16,-6.14,47.25,2.0,13.5625,13
141740,321.5,-50.25,169.4375,0.3880615,0.5100098,0.7444458,-0.187439,-0.375,-0.0625,-2.4375,-7.44,1.15,-6.27,0.03,0.0,-0.12,-7.54,1.14,-6.16,46.0625,2.0,13.1875,13
141874,322.375,-50.3125,169.8125,0.3869019,0.5111694,0.7434692,-0.1903687,-1.0625,-0.3125,-3.375,-7.58,1.09,-6.32,-0.03,0.0,-0.16,-7.55,1.09,-6.15,47.5625,1.5625,14.25,13
142529,322.9375,-50.625,169.4375,0.3886108,0.5164795,0.7380371,-0.1936035,0.0,-0.9375,1.1875,-7.5,1.0,-6.1,0.07,-0.13,0.0,-7.58,1.13,-6.1,47.25,2.0,14.0,13
142722,323.4375,-50.8125,169.25,0.3889771,0.5206909,0.734314,-0.1959839,0.875,0.4375,1.1875,-7.5,0.9599999,-6.22,0.09,-0.18,-0.13,-7.6,1.14,-6.08,46.5,2.25,13.1875,13
142861,323.625,-50.875,169.1875,0.3892212,0.5220337,0.7329102,-0.1968994,-0.375,1.1875,0.4375,-7.63,1.21,-6.24,-0.02,0.05,-0.17,-7.61,1.15,-6.07,47.5625,2.25,12.75,13
143523,324.875,-50.9375,169.25,0.3875122,0.5291138,0.7275391,-0.201355,3.25,2.3125,0.8125,-7.61,0.85,-6.3,0.0,-0.29,-0.23,-7.61,1.14,-6.06,46.875,2.0,13.5625,14
143662,325.625,-50.75,169.5625,0.3843994,0.5320435,0.7266235,-0.2028198,1.3125,0.125,0.75,-7.39,1.1,-6.37,0.19,-0.01,-0.27,-7.59,1.12,-6.1,47.25,1.1875,13.5625,14
143803,325.375,-50.5625,169.4375,0.3839722,0.5328369,0.7266846,-0.2014771,-2.625,0.9375,-0.75,-7.32,1.09,-6.24,0.26,-0.01,-0.1,-7.57,1.14,-6.12,47.875,2.0,14.6875,14
144556,325.4375,-51.625,169.3125,0.3909302,0.5280762,0.7253418,-0.2054443,0.875,-0.75,1.1875,-7.78,1.04,-5.9,-0.09,-0.08,0.08,-7.68,1.12,-5.98,47.25,1.5625,12.1875,13
144760,326.3125,-51.9375,169.4375,0.3913574,0.5308838,0.7217407,-0.2098389,4.1875,-1.8125,2.375,-7.83,0.89,-5.89,-0.1,-0.2,0.04,-7.72,1.1,-5.93,47.5625,2.6875,12.5,13
145552,326.75,-51.375,169.6875,0.3865967,0.5342407,0.722168,-0.2088013,5.5,-2.875,2.0,-7.67,1.07,-5.91,-0.01,-0.01,0.1,-7.66,1.09,-6.02,47.875,2.0,12.75,13
145697,328.75,-51.75,170.4375,0.3847656,0.5379639,0.7180176,-0.2167358,7.9375,-2.25,-0.25,-7.76,1.12,-6.26,-0.06,0.12,-0.28,-7.7,0.99,-5.98,47.875,1.1875,12.75,13
145842,330.25,-51.5625,171.375,0.3799438,0.5393066,0.7184448,-0.2206421,0.6875,0.6875,-2.3125,-7.61,0.9,-6.27,0.06,0.0,-0.25,-7.68,0.91,-6.02,47.5625,2.0,13.5625,13
146578,330.5625,-51.375,171.8125,0.3774414,0.5386963,0.7201538,-0.2206421,-2.3125,0.25,-2.1875,-7.59,0.9599999,-6.17,0.07,0.09,-0.11,-7.66,0.87,-6.05,47.875,2.25,12.75,14
146781,330.125,-51.3125,171.75,0.3779907,0.5360107,0.7224731,-0.218811,-0.1875,0.875,-0.3125,-7.7,0.83,-6.02,-0.04,-0.03,0.03,-7.65,0.87,-6.06,47.25,2.25,12.75,14
147567,331.9375,-51.3125,173.0,0.3737183,0.5358887,0.7230835,-0.2244263,-0.6875,0.8125,0.0,-7.54,0.8,-6.04,0.11,0.05,0.03,-7.65,0.74,-6.07,47.875,3.75,13.5625,14
147715,332.0625,-51.25,173.0625,0.37323,0.5360107,0.7231445,-0.2245483,1.5625,1.25,-0.75,-7.57,0.74,-6.08,0.08,0.0,0.0,-7.65,0.73,-6.08,47.25,2.6875,12.1875,14
147863,332.8125,-51.5,173.4375,0.3728638,0.536377,0.7219849,-0.2281494,2.625,-3.0,0.5,-7.89,0.54,-6.13,-0.21,-0.14,-0.07,-7.67,0.69,-6.05,47.5625,3.75,13.1875,14
148533,332.0625,-51.125,172.9375,0.3723755,0.5375977,0.7225952,-0.2240601,2.75,-3.9375,0.3125,-7.67,0.86,-6.3,-0.02,0.11,-0.2,-7.64,0.74,-6.09,48.25,2.6875,13.1875,14
148747,332.625,-51.1875,172.9375,0.371521,0.5411377,0.7197266,-0.2260742,2.0625,-0.625,2.1875,-7.52,0.66,-6.02,0.11,-0.09,0.07,-7.64,0.75,-6.09,46.875,3.0625,13.5625,14
149512,336.75,-51.625,174.375,0.3651123,0.5510864,0.7106934,-0.2407227,2.0,0.625,1.75,-7.7,0.46,-6.13,-0.01,-0.12,-0.08,-7.69,0.59,-6.05,47.5625,3.0625,11.375,14
149666,337.5,-51.875,174.5625,0.3651123,0.5529175,0.7080078,-0.2443848,2.625,-3.4375,0.375,-7.65,0.53,-6.12,0.06,-0.02,-0.1,-7.72,0.56,-6.02,47.875,2.6875,12.75,14
149818,338.0,-51.875,174.9375,0.3638916,0.5528564,0.7081909,-0.2457275,-0.5625,-0.3125,-1.25,-7.66,0.55,-6.13,0.05,0.01,-0.11,-7.71,0.53,-6.02,47.875,3.0625,12.75,14
150543,336.1875,-51.6875,173.75,0.3670044,0.5533447,0.708374,-0.2394409,0.0625,-2.6875,-0.5,-7.82,0.56,-5.94,-0.16,0.03,0.08,-7.7,0.65,-6.03,48.25,2.0,12.5,14
150744,336.8125,-51.8125,173.9375,0.3665771,0.5550537,0.7064209,-0.2419434,2.6875,1.1875,0.9375,-7.71,0.65,-6.1,0.0,0.01,-0.08,-7.71,0.63,-6.02,46.875,2.25,12.5,14
151563,336.25,-51.75,172.75,0.368042,0.5627441,0.7000732,-0.2402954,2.6875,-1.5625,-1.0,-7.67,0.76,-6.02,0.07,-0.04,-0.07,-7.7,0.75,-6.01,47.875,1.1875,12.1875,14
151700,337.125,-51.75,173.4375,0.3656616,0.5617676,0.7012939,-0.2427368,1.1875,-0.0625,-2.6875,-7.66,0.65,-5.92,0.03,-0.03,0.09,-7.7,0.69,-6.02,48.25,2.0,11.75,14
151839,337.6875,-51.8125,173.875,0.364624,0.5610352,0.7016602,-0.244873,1.5,-0.5625,-0.125,-7.77,0.68,-6.09,-0.06,0.04,-0.07,-7.71,0.64,-6.02,47.875,2.0,12.5,14
152563,337.8125,-52.125,173.5625,0.3664551,0.5629883,0.6986084,-0.24646,-0.3125,2.1875,0.75,-7.38,0.74,-6.15,0.35,0.1,-0.18,-7.74,0.67,-5.98,47.5625,2.0,11.375,14
152705,337.375,-52.375,173.3125,0.3690796,0.5617065,0.6982422,-0.2462769,-1.875,2.0,-0.25,-7.94,0.51,-6.01,-0.18,-0.18,-0.06,-7.76,0.69,-5.94,48.0,0.875,11.375,14
153556,337.4375,-51.875,173.75,0.3657227,0.5602417,0.7019653,-0.2442627,-1.4375,0.3125,-1.5,-7.66,0.67,-6.13,0.05,0.01,-0.11,-7.71,0.65,-6.01,48.25,2.6875,12.75,14
153697,337.375,-52.0,173.875,0.366394,0.5580444,0.7033081,-0.2443237,-0.8125,-0.9375,-1.3125,-7.76,0.48,-6.08,-0.1,-0.15,-0.05,-7.72,0.63,-6.0,48.6875,2.6875,12.5,14
153838,337.4375,-51.9375,174.0,0.3657837,0.5578003,0.7037964,-0.2443237,0.0625,1.9375,0.375,-7.64,0.69,-6.15,0.07,0.06,-0.13,-7.72,0.62,-6.01,47.875,1.5625,12.1875,14
154579,336.0625,-52.125,172.75,0.3709106,0.5594482,0.7009277,-0.2411499,-0.6875,0.5625,2.125,-7.72,0.9,-6.04,0.01,0.14,-0.07,-7.74,0.75,-5.96,48.25,1.1875,11.375,14
154726,335.5,-52.0,172.25,0.3717041,0.5610962,0.6998291,-0.2391968,-0.875,0.875,2.3125,-7.71,0.65,-5.81,0.01,-0.15,0.16,-7.73,0.8,-5.97,47.5625,1.1875,12.0625,14
155570,335.375,-51.4375,172.8125,0.3675537,0.5585938,0.7050781,-0.2360229,-2.25,1.3125,-1.3125,-7.74,0.77,-5.95,-0.07,0.0,0.11,-7.66,0.76,-6.06,47.875,0.5,12.1875,14
155728,335.125,-51.5625,172.625,0.3692627,0.5579834,0.7047119,-0.2359619,0.5625,0.5,1.3125,-7.83,0.74,-5.83,-0.15,-0.03,0.2,-7.68,0.78,-6.04,47.5625,1.5625,12.1875,14
155875,335.0625,-51.625,172.375,0.3699341,0.5595703,0.703064,-0.236084,0.0625,-0.375,1.625,-7.6,0.84,-6.09,0.08,0.03,-0.06,-7.69,0.8,-6.02,49.0625,1.5625,13.1875,14
156583,335.3125,-52.4375,173.1875,0.3739014,0.5499878,0.7072144,-0.2398071,0.5625,3.0,2.1875,-7.7,0.54,-5.92,0.06,-0.16,0.01,-7.77,0.71,-5.94,48.6875,2.25,12.5,14
156737,335.1875,-52.25,172.75,0.3734131,0.553894,0.7047729,-0.2388306,1.625,-2.0625,3.3125,-7.67,0.63,-5.94,0.08,-0.12,0.0,-7.75,0.75,-5.95,48.25,1.5625,12.1875,14
157555,334.0625,-52.5,171.625,0.3780518,0.5557251,0.7015381,-0.2367554,0.9375,-1.0,1.375,-7.78,0.79,-5.95,0.0,-0.06,-0.04,-7.78,0.86,-5.9,48.25,1.1875,11.375,14
157708,334.4375,-52.5,171.8125,0.3773193,0.5567017,0.7007446,-0.2380371,1.125,0.8125,-0.125,-7.81,0.83,-5.9,-0.02,-0.01,0.0,-7.78,0.84,-5.9,47.5625,0.875,11.75,14
157861,334.625,-52.5,171.9375,0.37677,0.5567627,0.7008667,-0.2385254,-0.1875,-3.125,-0.5625,-7.75,0.84,-6.06,0.01,0.0,-0.07,-7.78,0.83,-5.9,47.5625,1.1875,11.375,14
158528,333.0625,-52.875,171.1875,0.3828125,0.5512695,0.7029419,-0.2354126,2.0625,1.5625,-3.3125,-7.76,0.64,-5.75,0.05,-0.25,0.09,-7.82,0.89,-5.84,47.5625,1.5625,11.375,14
158685,334.0625,-53.4375,171.8125,0.3841553,0.5496216,0.7017822,-0.2405396,1.125,-2.9375,0.3125,-8.16,0.75,-6.07,-0.28,-0.07,-0.29,-7.88,0.82,-5.77,48.25,0.5,10.25,14
158855,333.8125,-53.125,171.6875,0.3828735,0.5505371,0.7024536,-0.2384033,-2.4375,1.625,0.375,-7.54,0.68,-5.75,0.3,-0.16,0.06,-7.84,0.85,-5.81,48.6875,2.25,10.6875,14
159527,331.9375,-53.8125,171.0,0.3914795,0.5409546,0.7061768,-0.2353516,2.75,-1.625,-2.125,-7.99,0.9,-5.78,-0.07,0.0,-0.07,-7.91,0.89,-5.71,48.6875,1.1875,11.375,14
159686,332.4375,-54.0625,171.25,0.3918457,0.5410767,0.7050781,-0.2377319,-0.0625,-0.625,2.1875,-8.09,0.93,-5.91,-0.15,0.0,-0.26,-7.94,0.87,-5.68,49.375,1.5625,10.25,14
159845,331.625,-53.75,170.5,0.3922729,0.5437622,0.7040405,-0.2340088,-1.875,1.375,3.125,-7.83,0.68,-5.71,0.07,-0.26,0.0,-7.91,0.95,-5.71,47.5625,1.1875,10.25,14
160533,329.9375,-53.6875,170.3125,0.3955078,0.5350342,0.7108154,-0.2280884,-4.75,2.625,-0.125,-8.14,0.99,-5.6,-0.23,0.02,0.11,-7.9,0.9700001,-5.71,48.6875,2.0,10.25,14
160669,329.0625,-53.4375,169.875,0.3956299,0.5356445,0.7115479,-0.2242432,0.5625,0.875,2.5,-7.91,0.99,-5.52,-0.03,-0.03,0.22,-7.87,1.02,-5.75,48.25,1.1875,11.0,14
160812,329.75,-53.375,169.9375,0.3939209,0.5396118,0.7088013,-0.2264404,6.0,-0.75,2.0,-7.66,0.99,-5.65,0.2,-0.02,0.1,-7.87,1.02,-5.75,48.25,0.875,11.375,14
161525,334.6875,-54.875,164.875,0.3984375,0.5983276,0.6477051,-0.2524414,15.875,-8.75,36.3125,-8.63,1.51,-5.72,-0.58,0.11,-0.22,-8.02,1.5,-5.43,49.0625,-1.5625,8.75,14
161669,332.8125,-53.4375,159.375,0.4013672,0.635437,0.6123657,-0.2452393,13.875,-8.6875,45.375,-8.54,1.62,-5.88,-0.67,-0.47,-0.42,-7.86,2.1,-5.46,48.5625,-6.375,8.0,14
161815,331.0625,-51.8125,152.3125,0.4099731,0.6789551,0.55896,-0.2417603,14.875,12.375,51.3125,-8.09,2.29,-5.67,-0.38,-0.5,-0.31,-7.67,2.86,-5.38,48.0,-12.5625,7.6875,14
162574,23.25,-24.8125,136.625,0.4039917,0.8426514,0.3461304,-0.08319092,-2.3125,12.25,25.1875,-3.67,5.87,-6.3,0.43,-0.24,0.16,-4.11,6.11,-6.47,30.0625,-35.75,15.0625,14
162724,17.125,-21.75,135.75,0.4044189,0.850708,0.3302612,-0.06109619,-1.875,0.6875,14.375,-3.8,6.27,-6.5,-0.16,-0.07,0.01,-3.63,6.35,-6.52,27.5,-37.5625,15.5,14
163577,42.0625,-26.8125,131.6875,0.4205322,0.8694458,0.2023926,-0.1618652,-6.6875,-17.75,30.125,-4.85,6.33,-7.26,-0.42,-0.19,-1.44,-4.41,6.55,-5.8,25.375,-40.25,12.75,14
163731,30.125,-21.5,128.8125,0.4405518,0.8712158,0.1811523,-0.1187744,-31.625,44.0,30.0625,-2.57,6.28,-7.57,0.93,-0.86,-1.86,-3.51,7.15,-5.71,22.75,-42.5,11.375,14
164594,315.625,11.6875,98.4375,0.6057129,0.7442017,0.1358032,0.2467651,-31.75,62.0625,14.9375,1.64,8.56,-0.88,-0.38,-0.93,0.46,2.02,9.5,-1.34,-0.0625,-48.5625,-7.25,14
164756,309.4375,12.125,91.5,0.6334839,0.6950073,0.163147,0.2984619,-37.5,17.4375,-17.3125,2.42,9.34,0.62,0.38,-0.24,0.81,2.04,9.59,-0.18,1.0,-47.75,-10.1875,14
165595,333.9375,0.9375,72.5,0.7855225,0.5787354,0.1228638,0.1813965,2.75,-17.25,-0.75,-0.41,9.2,3.33,-0.58,-0.15,0.39,0.17,9.35,2.93,6.5,-39.25,-27.5,14
165743,335.75,1.875,72.9375,0.7859497,0.5854492,0.1048584,0.1688232,-2.125,-12.9375,3.5625,-0.36,9.13,1.66,-0.46,-0.23,-1.16,0.33,9.37,2.87,4.6875,-39.6875,-27.5,14
166542,2.625,-3.125,68.875,0.8240967,0.5657349,0.02038574,-0.01898193,-13.8125,-29.3125,-17.8125,0.17,9.34,2.51,0.71,0.2,-1.0,-0.54,9.13,3.52,2.5,-36.5,-30.75,14
166696,8.0,-4.4375,66.5,0.8338623,0.5488281,0.008422852,-0.05834961,-13.375,-18.8125,-24.8125,-0.7,10.25,3.53,0.09,1.29,-0.38,-0.79,8.95,3.91,2.875,-36.0625,-33.0,14
166852,14.3125,-6.625,62.8125,0.8458252,0.5227051,0.002929688,-0.1064453,-28.125,-28.625,-27.25,-2.61,9.4,3.96,-1.47,0.74,-0.47,-1.13,8.66,4.44,2.0,-33.875,-33.6875,14
167601,359.0,-6.4375,51.8125,0.8982544,0.4342651,0.06665039,0.007751465,-12.0625,-15.5,1.5625,1.21,7.68,5.71,2.32,0.02,-0.3,-1.1,7.66,6.02,7.1875,-25.5,-40.1875,14
167757,0.5,-4.875,50.375,0.9040527,0.4249878,0.04510498,-0.004333496,-6.25,-45.3125,-2.125,0.41,6.87,5.87,1.19,-0.64,-0.36,-0.78,7.52,6.23,5.375,-24.875,-41.375,14
168546,357.0,5.4375,42.4375,0.9308472,0.3622437,-0.04174805,0.02410889,3.8125,16.0625,44.375,0.34,6.62,6.37,-0.48,0.0,-0.7,0.9599999,6.59,7.19,-4.375,-17.5625,-43.1875,14
168708,349.125,6.25,41.1875,0.930542,0.3544922,-0.02532959,0.08850098,-12.1875,25.4375,37.6875,2.14,5.51,6.87,1.06,-0.88,-0.46,1.08,6.4,7.34,-2.5625,-17.5,-43.875,14
168870,341.375,3.625,38.375,0.9314575,0.3297729,0.01983643,0.1526489,-8.125,35.25,26.875,0.76,8.43,6.93,0.15,2.36,-0.74,0.6,6.07,7.67,1.75,-16.375,-44.375,14
169542,328.125,3.0,37.1875,0.911377,0.3123169,0.0614624,0.2609253,-19.625,17.9375,8.0625,0.31,6.7,8.81,-0.18,0.8,0.99,0.5,5.89,7.81,5.5625,-16.6875,-44.375,14
169767,327.5625,1.9375,37.1875,0.9099121,0.3112793,0.07165527,0.2645874,23.6875,-3.1875,-1.375,1.76,4.64,9.2,1.7,-1.37,1.48,0.33,5.96,7.77,7.375,-15.25,-44.0,14
170569,312.5,-0.625,55.3125,0.81073,0.4224854,0.1928711,0.3563843,24.0,-2.9375,6.0,0.17,7.57,6.13,0.27,-0.38,0.85,-0.09,8.09,5.54,13.25,-29.375,-35.25,14
170778,311.75,1.6875,65.0625,0.7692261,0.49823,0.2036133,0.3443604,60.375,18.6875,10.6875,-0.56,9.51,3.66,-0.85,0.43,-0.53,0.3,8.93,4.03,12.1875,-34.375,-30.875,14
171570,264.6875,16.875,102.0625,0.4260254,0.6685181,0.3917236,0.467041,54.5,146.5,10.0625,5.32,8.19,-6.32,2.88,-0.38,-4.29,2.9,9.15,-1.99,3.0625,-48.75,2.5,14
171715,249.625,20.5,107.1875,0.3363037,0.6636353,0.4484863,0.4953003,69.3125,75.5625,8.5625,4.66,6.6,-3.97,1.17,-2.12,-1.19,3.48,8.73,-2.77,0.5,-48.0625,9.1875,14
172576,174.375,34.1875,136.875,0.02630615,-0.5996094,-0.6658325,-0.4432373,52.8125,29.1875,9.4375,5.86,5.67,-5.85,0.3,0.19,0.08,5.55,5.47,-5.94,-11.875,-28.1875,35.25,14
172721,162.1875,34.125,145.4375,0.06164551,-0.6049194,-0.6890869,-0.3942261,51.8125,10.5625,5.375,4.9,3.01,-7.03,-0.65,-1.78,-0.18,5.53,4.53,-6.7,-12.6875,-23.5,39.5,14
172872,82.0625,35.375,153.375,0.1062622,-0.6104126,-0.7012939,-0.3526001,38.625,-40.625,29.9375,4.36,1.7,-7.12,-1.18,-1.68,-0.06,5.66,3.5,-7.19,-14.1875,-16.6875,41.0,14
173533,196.5625,58.9375,165.125,0.2991333,-0.6072388,-0.6168823,-0.4014893,-15.3125,88.5,-13.0,8.99,-0.26,-4.87,0.53,-1.58,-0.09,8.46,1.32,-4.77,-27.5625,-5.5,37.5,14
173686,199.5625,62.9375,158.0,0.3104248,-0.5848999,-0.6061401,-0.4406128,-7.3125,15.8125,-1.3125,8.36,0.86,-3.47,-0.37,-0.8,0.63,8.74,1.67,-4.1,-34.25,-8.0,33.875,14
174559,199.75,75.625,121.1875,0.3786621,-0.5087891,-0.5535278,-0.5397339,-13.375,-15.4375,-0.25,8.98,2.25,-1.41,-0.51,0.16,-0.13,9.49,2.08,-1.28,-42.375,-10.375,21.875,14
174715,203.25,74.1875,126.0,0.3563232,-0.5266113,-0.550293,-0.5411987,-18.9375,-16.625,-0.125,9.42,1.79,-1.85,0.0,-0.36,-0.26,9.43,2.16,-1.59,-42.0625,-12.375,22.5625,14
174876,205.25,73.4375,130.25,0.3418579,-0.5428467,-0.5452271,-0.5396118,-5.5,-6.375,8.8125,9.26,1.74,-1.87,-0.13,-0.36,-0.06,9.4,2.11,-1.81,-41.375,-12.0,23.6875,14
175531,203.125,70.0,148.4375,0.3278809,-0.5764771,-0.5596924,-0.4969482,-3.75,-1.1875,3.375,9.17,1.43,-2.88,-0.04,-0.31,-0.02,9.21,1.74,-2.85,-38.5,-10.5,28.1875,14
175692,204.3125,68.8125,151.0,0.3169556,-0.5889282,-0.5577393,-0.4915161,-4.875,-16.125,3.625,8.84,1.7,-2.74,-0.3,-0.01,0.35,9.14,1.71,-3.09,-38.0625,-10.875,28.1875,14
175858,205.875,66.3125,153.75,0.3002319,-0.6029053,-0.562561,-0.4794922,-6.125,-8.6875,-0.5,8.85,1.58,-3.73,-0.11,-0.16,-0.18,8.97,1.74,-3.54,-36.6875,-11.1875,30.6875,14
176534,211.375,51.125,163.625,0.2184448,-0.6644287,-0.5995483,-0.3890991,5.8125,-64.3125,-1.4375,7.89,-0.07,-7.3,0.25,-1.8,-1.4,7.57,1.72,-5.98,-29.0625,-11.1875,36.6875,14
176693,211.8125,50.4375,163.5625,0.2132568,-0.6651611,-0.604126,-0.3835449,9.375,-28.1875,-4.8125,7.95,1.58,-4.52,0.42,-0.17,1.5,7.53,1.76,-6.02,-25.25,-11.1875,39.0,14
176854,211.75,49.75,162.9375,0.2128296,-0.6575928,-0.6134644,-0.382019,5.875,12.75,-14.75,7.83,1.99,-4.87,0.34,0.14,1.18,7.48,1.85,-6.05,-22.5,-10.875,40.5,14
177531,128.5625,44.375,161.6875,0.1739502,-0.6652832,-0.6296387,-0.3614502,-3.25,0.25,-3.625,6.34,1.85,-7.25,-0.51,-0.34,-0.6,6.86,2.2,-6.64,-22.0625,-12.25,40.75,14
177699,214.75,52.25,157.375,0.2161255,-0.6347046,-0.6160278,-0.4134521,9.6875,14.125,-1.625,6.94,2.24,-5.26,-0.82,-0.05,0.26,7.77,2.29,-5.52,-25.0,-12.5625,38.25,14
177859,214.6875,51.125,158.5,0.2114868,-0.6397095,-0.6187134,-0.4040527,-10.8125,10.375,-0.625,8.05,2.23,-6.36,0.52,-0.13,-0.27,7.64,2.26,-5.71,-25.6875,-12.5625,38.25,14
178541,140.8125,40.3125,156.625,0.1298218,-0.6567993,-0.6468506,-0.3652344,-4.0625,-8.4375,-3.6875,5.95,3.87,-8.51,-0.38,0.9,-1.65,6.34,2.97,-6.86,-18.75,-15.75,41.25,14
178754,91.3125,40.1875,159.0,0.1394653,-0.6625366,-0.6453247,-0.3536987,-4.875,15.75,15.9375,5.78,2.16,-9.57,-0.57,-0.49,-2.6,6.36,2.66,-6.97,-18.1875,-14.75,41.25,14
179568,137.1875,42.625,159.375,0.144104,-0.6798096,-0.617981,-0.3676758,-3.8125,5.375,0.125,8.07,0.34,-4.8,1.42,-2.18,1.93,6.64,2.53,-6.74,-19.5625,-14.375,41.25,14
179718,141.0,41.125,157.6875,0.1298828,-0.6740723,-0.6276245,-0.3671265,-1.8125,-11.1875,-11.75,6.76,4.25,-8.53,0.31,1.45,-1.7,6.45,2.8,-6.83,-18.5,-15.0625,41.25,14
180581,144.3125,44.625,152.0625,0.1318359,-0.6578979,-0.6176758,-0.4102173,-22.75,6.5,16.6875,8.61,2.81,-8.18,1.72,-0.45,-2.01,6.91,3.27,-6.13,-20.0,-18.0,39.0625,14
180709,238.25,46.375,148.1875,0.1244507,-0.6566772,-0.6014404,-0.4376831,-11.375,7.6875,-7.5,7.89,3.36,-2.59,0.79,-0.19,3.15,7.1,3.55,-5.74,-22.0625,-19.0625,37.25,14
180834,149.0,44.4375,149.3125,0.1173706,-0.6578979,-0.6116333,-0.4234009,19.25,-21.75,-2.8125,6.48,3.17,-6.95,-0.37,-0.37,-0.9,6.85,3.54,-6.04,-22.5,-20.5625,37.25,14
181571,149.5,39.4375,151.625,0.1052246,-0.6455078,-0.6503296,-0.3864136,-0.875,-8.0,-1.8125,5.17,3.17,-6.17,-1.06,-0.42,0.48,6.23,3.59,-6.66,-17.0,-18.875,39.75,14
181700,151.25,39.125,150.875,0.09960938,-0.6450195,-0.6502075,-0.388855,-9.5,-4.5,-4.375,4.91,3.36,-9.15,-1.27,-0.33,-2.5,6.18,3.71,-6.63,-17.375,-18.875,39.75,14
181832,154.0,39.875,148.4375,0.09362793,-0.6427002,-0.6431274,-0.4055786,-5.25,5.9375,-1.5,6.58,4.04,-3.94,0.28,0.11,2.46,6.29,3.94,-6.4,-17.75,-19.375,38.75,14
182529,148.6875,41.3125,150.8125,0.1118164,-0.6474609,-0.6392822,-0.3995361,-7.125,-2.625,-1.3125,5.39,3.15,-6.51,-1.08,-0.44,-0.08,6.47,3.59,-6.42,-18.75,-18.375,39.0625,14
182663,151.125,41.125,149.5625,0.104187,-0.647644,-0.6366577,-0.4054565,3.75,-27.25,-2.6875,6.04,3.55,-3.42,-0.4,-0.18,2.94,6.45,3.73,-6.36,-19.1875,-19.75,39.0625,14
182809,149.625,39.875,151.9375,0.1065063,-0.6517334,-0.6417847,-0.3898926,-5.3125,32.125,-1.3125,7.57,2.64,-13.74,1.25,-0.89,-7.14,6.32,3.54,-6.6,-17.75,-18.75,39.5,14
183564,149.5,41.5625,149.6875,0.1105347,-0.6430054,-0.6399536,-0.4059448,-9.5625,33.4375,-18.1875,6.15,3.92,-6.04,-0.35,0.22,0.29,6.5,3.7,-6.33,-19.0625,-18.75,39.375,14
183698,152.3125,41.1875,148.5,0.1012573,-0.6449585,-0.6361694,-0.4111938,-6.3125,9.875,1.1875,6.36,4.14,-6.7,-0.11,0.29,-0.43,6.47,3.85,-6.27,-18.6875,-19.375,38.0,14
183840,151.0,42.125,148.75,0.1080322,-0.6477051,-0.6311646,-0.4128418,17.0625,-2.9375,8.375,7.74,3.77,-2.69,1.16,0.03,3.54,6.58,3.73,-6.23,-18.6875,-19.75,39.0625,14
184535,235.25,49.5625,144.8125,0.1447754,-0.6348877,-0.6016235,-0.4627075,16.1875,-3.3125,1.8125,7.44,3.04,-5.44,-0.02,-0.61,-0.24,7.46,3.65,-5.19,-24.5625,-20.875,34.6875,14
184677,233.125,48.8125,147.1875,0.1494141,-0.6369019,-0.6091309,-0.4483643,6.25,-9.375,-0.375,8.12,2.88,-5.2,0.74,-0.6,0.22,7.37,3.48,-5.44,-24.1875,-19.0625,36.0625,14
184816,232.5625,49.8125,145.5,0.1550903,-0.6274414,-0.6100464,-0.458374,-14.5625,50.75,-6.3125,12.09,12.17,-4.38,4.59,8.59,0.82,7.52,3.59,-5.16,-24.1875,-19.0625,38.0,14
185577,237.0,45.25,148.0,0.1274414,-0.6408081,-0.6228638,-0.4302979,-19.9375,13.4375,-6.0625,6.6,3.61,-7.92,-0.13,0.34,-1.52,6.97,3.68,-5.82,-20.1875,-19.375,37.5625,14
185723,153.1875,44.3125,144.6875,0.1055298,-0.6403809,-0.617981,-0.4436646,9.9375,-33.5625,-6.875,6.5,3.99,-4.1,-0.3,-0.05,1.66,6.81,4.05,-5.77,-21.6875,-21.5625,37.25,14
185865,152.5,42.25,147.75,0.1036377,-0.6472168,-0.6276245,-0.420105,7.1875,3.875,6.5,6.81,3.97,-7.52,0.2,0.11,-1.38,6.6,3.85,-6.13,-19.875,-20.875,37.25,14
186538,147.5625,44.5625,148.5625,0.1235962,-0.6443481,-0.6234741,-0.4252319,0.5,16.75,-0.5625,7.23,-1.64,-6.44,0.35,-5.28,-0.48,6.9,3.63,-5.93,-20.5625,-19.375,38.0,14
186682,234.875,47.625,146.125,0.1416016,-0.630188,-0.6185913,-0.4473877,-4.5,38.1875,-1.1875,7.54,4.21,-3.86,0.26,0.53,1.57,7.28,3.68,-5.43,-23.0625,-19.75,36.875,14
186829,237.4375,45.3125,147.6875,0.1260986,-0.6412354,-0.6211548,-0.4324341,1.75,9.25,2.1875,5.99,3.22,-5.79,-0.9700001,-0.45,0.03,6.98,3.67,-5.81,-21.25,-21.25,37.5625,14
187589,232.9375,48.6875,145.8125,0.1514282,-0.6240234,-0.6193848,-0.4517822,0.8125,-10.0625,-0.4375,7.28,3.7,-5.03,-0.08,0.06,0.31,7.35,3.63,-5.37,-24.875,-19.375,35.75,14
187736,232.625,49.1875,145.375,0.1542969,-0.6224365,-0.6173096,-0.4558105,-0.9375,6.25,0.375,7.36,3.44,-4.75,-0.06,-0.19,0.5,7.43,3.63,-5.26,-24.5625,-20.1875,35.375,14
188513,230.4375,51.0625,143.25,0.168396,-0.6077881,-0.6182861,-0.4689331,0.5,-5.0,0.5625,10.12,2.19,-7.25,2.5,-1.48,-2.29,7.62,3.67,-4.95,-26.375,-19.375,35.0,14
188663,234.875,46.9375,146.1875,0.1400757,-0.6262207,-0.6257935,-0.4433594,-3.8125,-35.625,0.0,8.68,3.91,-8.08,1.54,0.19,-2.48,7.14,3.72,-5.59,-25.5625,-19.375,35.75,14
188863,237.0625,45.4375,146.5625,0.1289063,-0.6306152,-0.62854,-0.4365845,-0.375,-6.8125,-0.375,6.48,3.96,-4.88,-0.49,0.18,0.86,6.98,3.78,-5.74,-22.375,-19.75,36.5,14
189522,147.875,44.875,146.5,0.125061,-0.6304932,-0.6307373,-0.4348145,-0.4375,8.125,0.1875,6.27,3.86,-4.63,-0.65,0.03,1.16,6.93,3.83,-5.78,-21.6875,-19.75,36.875,14
189654,147.75,44.5625,146.9375,0.1245728,-0.6316528,-0.6320801,-0.4312744,-0.4375,-6.1875,0.625,7.87,1.6,-7.27,0.98,-2.2,-1.43,6.89,3.8,-5.84,-22.375,-20.1875,37.5625,14
189789,236.0625,46.25,145.6875,0.1348267,-0.6238403,-0.6297607,-0.442749,-0.5,-6.0625,-0.125,8.01,2.97,-5.75,0.93,-0.84,-0.15,7.08,3.81,-5.6,-23.375,-20.1875,36.875,14
190521,236.875,46.0,145.0,0.1329346,-0.6202393,-0.6313477,-0.446106,-1.75,19.9375,-3.375,6.12,-1.11,-7.58,-0.94,-5.02,-2.02,7.07,3.9,-5.55,-23.0625,-20.1875,36.0625,14
190656,235.8125,47.0,144.125,0.138916,-0.6153564,-0.6306152,-0.4521484,-1.75,-27.0625,1.3125,6.53,-2.82,-2.04,-0.61,-6.73,3.39,7.15,3.91,-5.44,-23.375,-20.1875,36.875,14
190799,235.6875,47.0625,144.1875,0.1378784,-0.616394,-0.6308594,-0.4506226,-1.8125,-29.625,-0.6875,6.72,13.01,-6.41,-0.42,9.1,-0.9599999,7.15,3.9,-5.45,-23.375,-20.875,35.75,14
191557,148.3125,44.6875,145.625,0.1241455,-0.6240234,-0.635437,-0.437439,0.25,-3.9375,0.0625,7.76,3.53,-5.54,0.86,-0.39,0.2,6.89,3.93,-5.75,-20.875,-20.1875,36.875,14
191701,148.6875,44.5625,145.6875,0.1223755,-0.6259766,-0.6343994,-0.4367065,0.25,2.25,-0.5,7.67,3.74,-5.76,0.79,-0.18,0.0,6.88,3.93,-5.77,-20.875,-21.25,37.25,14
191845,150.5625,43.6875,146.25,0.1134644,-0.6342773,-0.6309204,-0.4321289,-0.5625,-22.3125,-0.625,7.26,7.08,-6.27,0.48,3.14,-0.38,6.75,3.93,-5.91,-22.0,-22.6875,36.5,14
192542,239.0,46.0,143.9375,0.125061,-0.6245728,-0.624939,-0.4512939,0.0625,12.5,-0.5625,7.01,1.97,-4.69,-0.05,-2.02,0.79,7.07,4.0,-5.48,-22.375,-20.1875,36.0,14
192688,236.0625,48.5625,141.9375,0.1427612,-0.6115112,-0.6218262,-0.4679565,2.0625,10.4375,0.8125,8.94,3.46,-6.91,1.59,-0.52,-1.79,7.35,3.99,-5.1,-25.5625,-20.875,34.6875,14
192832,239.0,45.75,144.25,0.1244507,-0.6247559,-0.6265259,-0.4490356,-2.9375,0.0,-0.9375,7.54,2.02,-5.14,0.5,-1.97,0.4,7.03,3.99,-5.54,-23.75,-19.75,36.0625,14
193578,238.875,46.0,143.375,0.1259155,-0.6193237,-0.6287842,-0.4530029,-1.0625,-2.1875,-0.25,7.87,7.03,-4.81,0.82,2.98,0.65,7.05,4.05,-5.46,-22.6875,-20.875,35.375,14
193722,238.4375,46.375,142.875,0.1289063,-0.6156006,-0.6290894,-0.4567261,-0.5625,18.25,-1.625,7.28,5.12,-5.01,0.16,1.04,0.35,7.12,4.08,-5.36,-23.75,-20.875,35.75,14
193872,237.125,47.4375,141.9375,0.1365967,-0.6094971,-0.6282959,-0.4638062,0.3125,13.6875,0.125,6.97,1.35,-3.91,-0.26,-2.72,1.29,7.23,4.08,-5.2,-24.5625,-21.25,35.0,14
194545,237.6875,46.9375,141.5625,0.1337891,-0.605896,-0.6328125,-0.4631958,-0.6875,-5.9375,-0.3125,7.62,2.95,-5.25,0.45,-1.2,-0.01,7.16,4.15,-5.24,-24.5625,-22.0,35.375,14
194694,238.5,46.3125,141.875,0.1295776,-0.6079102,-0.6342773,-0.4597778,-1.25,-29.5625,1.5625,6.81,1.81,-5.04,-0.25,-2.36,0.32,7.06,4.17,-5.36,-23.75,-22.0,35.375,14
194846,239.3125,45.5,142.5,0.1244507,-0.6109009,-0.6362305,-0.4544067,0.125,-3.6875,0.1875,7.73,2.6,-4.59,0.73,-1.57,0.85,6.99,4.17,-5.45,-22.375,-21.5625,36.0625,14
195546,153.4375,43.0625,143.125,0.1046143,-0.6191406,-0.6394043,-0.4436646,0.625,36.6875,-2.9375,6.11,4.58,-5.97,-0.61,0.29,-0.28,6.73,4.29,-5.69,-22.0,-22.375,36.375,14
195701,152.6875,43.5625,142.3125,0.1088867,-0.6124268,-0.6416626,-0.4487305,-1.4375,-10.9375,-1.5625,7.03,5.03,-6.55,0.27,0.69,-0.92,6.74,4.34,-5.64,-24.0625,-21.5625,37.1875,14
195857,154.625,42.1875,142.75,0.09906006,-0.6155396,-0.6450806,-0.4417725,-1.25,-1.125,-1.5625,6.68,6.81,-5.74,0.09,2.42,0.03,6.58,4.39,-5.78,-23.0,-22.375,38.25,14
196590,160.0625,38.75,144.25,0.07495117,-0.6271973,-0.6494751,-0.4232788,-2.875,20.5625,-2.5,5.87,2.98,-6.69,-0.28,-1.48,-0.51,6.16,4.46,-6.18,-19.0,-23.75,36.875,14
196740,242.0,45.0,139.25,0.1165161,-0.5964355,-0.6418457,-0.4676514,0.875,41.5,-1.125,8.03,5.33,-7.69,1.09,0.81,-2.44,6.93,4.52,-5.25,-21.875,-23.0625,35.6875,14
197555,166.125,37.8125,139.625,0.05389404,-0.6133423,-0.6516724,-0.4429321,-2.6875,-26.625,-4.125,6.3,4.91,-6.14,0.23,-0.2,-0.1,5.98,5.01,-5.93,-18.1875,-24.875,36.0,14
197689,169.4375,36.125,139.875,0.0401001,-0.6176147,-0.6538086,-0.4353027,-2.875,-1.0,-4.0625,6.25,4.81,-6.96,0.46,-0.28,-0.9,5.78,5.1,-6.05,-16.6875,-24.875,36.75,14
197825,171.5,35.6875,138.6875,0.03253174,-0.614502,-0.6538696,-0.4401855,-7.0,7.625,-6.75,6.22,4.98,-6.23,0.5,-0.28,-0.25,5.72,5.26,-5.97,-16.0,-26.25,36.0,14
198520,189.9375,30.25,127.75,0.04376221,0.5772705,0.6561279,0.4841309,-15.625,-1.5625,-18.75,4.68,6.5,-4.68,-0.23,-0.22,0.48,4.91,6.72,-5.17,-11.0625,-33.6875,33.0625,14
198661,195.1875,28.1875,124.875,0.06750488,0.5653076,0.6571045,0.4941406,-14.0625,-1.375,-19.875,4.86,6.7,-4.66,0.26,-0.41,0.25,4.6,7.11,-4.92,-8.0625,-35.0625,30.75,14
198809,200.8125,25.75,122.125,0.09246826,0.5541382,0.6575928,0.5018921,-15.5625,-4.5625,-19.8125,4.95,7.0,-4.67,0.72,-0.49,0.0,4.23,7.5,-4.68,-7.75,-36.1875,29.75,14
199563,219.875,13.375,107.5,0.2028809,0.4493408,0.6668091,0.5587769,-17.3125,42.25,-26.3125,2.73,7.83,-2.02,0.46,-1.26,0.85,2.27,9.09,-2.87,3.0625,-42.375,22.25,14
199723,222.8125,9.8125,104.3125,0.2244873,0.4128418,0.6721191,0.5722046,-18.0,-24.375,-26.75,1.35,8.78,-2.46,-0.32,-0.57,-0.06,1.67,9.36,-2.39,4.0625,-43.75,21.1875,14
199870,232.25,5.5,102.375,0.276001,0.4104614,0.6623535,0.5626831,-16.875,-43.125,-23.75,0.2,11.56,-0.07,-0.68,2.02,2.0,0.89,9.54,-2.08,8.875,-43.75,18.6875,14
200543,242.5625,-1.0625,100.0625,0.3344727,0.3857422,0.6624756,0.5482178,-1.5,-2.1875,-4.5625,-0.33,9.78,-1.37,-0.13,0.13,0.34,-0.19,9.65,-1.71,15.6875,-44.5,15.375,14
200689,243.3125,-1.75,99.6875,0.338501,0.3807983,0.6628418,0.5487061,-0.0625,0.25,-2.5625,-0.44,9.78,-1.47,0.0,0.08,0.07,-0.3,9.66,-1.65,16.75,-43.0,16.5,14
200838,243.3125,-2.0,99.6875,0.338623,0.3780518,0.6643066,0.5487061,-0.5625,-5.625,-0.625,-0.32,9.72,-1.82,0.02,0.06,-0.16,-0.34,9.66,-1.65,16.375,-42.5625,15.375,14
201567,241.375,-0.5,99.5625,0.3293457,0.3835449,0.6606445,0.5549927,-0.0625,1.4375,0.4375,0.31,9.7,-1.81,0.41,0.03,-0.17,-0.08,9.66,-1.63,15.0,-43.25,16.5,14
201717,240.6875,-0.1875,99.625,0.3261108,0.3835449,0.6608887,0.5565186,-0.3125,4.1875,-0.8125,0.09,9.65,-1.55,0.13,-0.01,0.09,-0.04,9.66,-1.64,15.6875,-43.25,16.5,14
201868,237.125,0.1875,99.625,0.3085327,0.367981,0.6697388,0.5664673,-0.1875,35.9375,-0.5,0.4,1.02,-0.17,0.36,-8.63,1.47,0.04,9.66,-1.64,15.0,-42.5625,16.75,14
202538,230.875,1.4375,99.8125,0.2768555,0.3470459,0.6817627,0.5814819,0.875,-3.5625,1.4375,0.29,9.57,-2.36,0.03,-0.08,-0.69,0.25,9.65,-1.67,13.5625,-43.6875,18.0,14
202689,231.25,1.5625,99.75,0.2789917,0.3503418,0.6797485,0.5808716,-1.25,-8.5625,0.0,0.72,9.69,-1.32,0.44,0.03,0.33,0.27,9.66,-1.66,12.5,-43.25,19.0625,14
202843,233.625,1.25,99.625,0.2911377,0.3604736,0.673645,0.5757446,-0.4375,-16.0625,-1.4375,0.18,9.61,-1.89,-0.03,-0.04,-0.25,0.21,9.66,-1.64,12.75,-43.0,17.1875,14
203583,242.125,-0.125,99.375,0.3338623,0.3920288,0.6544189,0.553772,0.5625,-4.25,-0.25,0.01,9.68,-1.79,0.04,0.01,-0.19,-0.02,9.67,-1.6,15.6875,-43.6875,15.75,14
203740,242.1875,-0.125,99.4375,0.3341064,0.3924561,0.6543579,0.5533447,-0.6875,-1.25,0.0,-0.09,9.66,-1.48,-0.06,0.0,0.13,-0.02,9.67,-1.61,16.0625,-43.6875,15.75,14
204520,241.625,0.0,99.5625,0.3308105,0.3916626,0.6558838,0.5540771,0.3125,-14.125,0.25,-0.1,8.84,-1.79,-0.1,-0.82,-0.15,0.0,9.66,-1.64,15.6875,-43.25,16.0625,14
204676,241.5625,0.0,99.5625,0.3305054,0.3912354,0.6561279,0.5542603,0.0,13.5625,0.375,-0.27,9.39,-1.57,-0.28,-0.27,0.06,0.0,9.66,-1.63,15.375,-42.5625,15.75,14
204838,242.8125,-0.125,99.5,0.3366699,0.3963013,0.6524048,0.5513306,-0.75,2.875,-0.0625,0.05,9.62,-1.74,0.07,-0.04,-0.12,-0.02,9.67,-1.62,15.375,-42.5625,15.0,14
205550,241.75,-0.0625,99.4375,0.3317871,0.390564,0.6553955,0.5548706,-0.5,2.75,0.0625,0.32,9.74,-1.99,0.33,0.06,-0.38,-0.01,9.67,-1.6,16.375,-43.25,15.375,14
205709,238.6875,0.25,99.4375,0.3170776,0.3776245,0.6629639,0.5633545,0.25,14.625,-0.6875,0.49,9.8,-1.73,0.44,0.12,-0.12,0.05,9.67,-1.61,14.5625,-43.25,16.75,14
206531,238.5625,0.3125,99.5,0.315979,0.3771973,0.6635742,0.5635376,-0.0625,-0.0625,0.0,0.01,9.7,-1.56,-0.03,0.03,0.05,0.05,9.67,-1.61,15.375,-42.5625,16.0625,14
206674,238.5625,0.3125,99.5,0.31604,0.3771362,0.6636353,0.5634766,-0.25,0.1875,0.1875,-0.02,9.68,-1.64,-0.06,0.04,0.0,0.05,9.67,-1.62,14.5625,-43.0,16.0625,14
206818,238.5625,0.3125,99.5,0.3161011,0.3771362,0.6635742,0.5634766,0.125,-0.375,0.375,0.06,9.69,-1.61,0.0,0.02,0.0,0.05,9.67,-1.61,15.375,-43.6875,16.75,14
207570,235.1875,0.6875,99.4375,0.2994995,0.3624268,0.6715698,0.5726929,-0.5625,-7.75,0.25,0.49,9.58,-2.44,0.37,-0.08,-0.83,0.12,9.67,-1.61,13.5625,-43.0,17.5625,14
207721,238.125,0.3125,99.4375,0.314209,0.3745728,0.6646729,0.5650024,-0.6875,-27.4375,0.0625,0.26,9.71,-1.1,0.21,0.04,0.5,0.04,9.67,-1.6,13.1875,-43.25,17.5625,14
207866,240.75,-0.0625,99.375,0.3272705,0.3851929,0.6583252,0.5577393,0.875,-4.6875,-0.3125,1.25,8.79,-3.74,1.26,-0.88,-2.13,-0.01,9.67,-1.6,14.25,-43.25,16.5,14
208526,240.875,-0.25,99.0625,0.3289185,0.3823853,0.6578369,0.5593262,-5.1875,-67.875,0.625,0.25,12.28,-1.44,0.3,2.59,0.1,-0.06,9.68,-1.54,14.5625,-44.0625,16.5,14
208674,243.0625,-0.5,99.0625,0.3399658,0.3926392,0.6518555,0.5526123,-0.5625,-11.6875,0.625,-1.59,6.52,1.51,-1.5,-3.16,3.06,-0.09,9.68,-1.55,15.0,-43.0,16.0625,14
208826,240.5625,-0.1875,99.25,0.3267212,0.3817139,0.6593018,0.5593872,1.5,36.5625,-0.6875,-0.19,9.28,-2.7,-0.15,-0.39,-1.12,-0.02,9.67,-1.57,15.6875,-43.0,16.0625,14
209574,242.1875,-0.5,99.125,0.3355713,0.3876953,0.6552124,0.5548096,-0.5,-6.6875,-1.875,0.63,17.09,-1.15,0.72,7.41,0.41,-0.09,9.68,-1.56,15.6875,-43.0,15.75,14
209728,242.125,-0.9375,99.125,0.3345947,0.3817139,0.6586914,0.5553589,-0.1875,16.3125,-3.5,-1.52,8.58,-1.58,-1.35,-1.09,-0.02,-0.16,9.68,-1.56,15.6875,-43.0,15.0,14
209880,238.6875,-0.625,99.0625,0.3181763,0.3656006,0.6674805,0.5653076,-1.375,-26.3125,0.0625,1.17,10.04,-1.66,1.29,0.36,-0.11,-0.11,9.68,-1.55,15.6875,-44.0625,16.5,14
210536,237.375,-0.625,99.125,0.3118286,0.3585815,0.6715088,0.5686035,0.25,-7.5625,1.875,0.78,10.65,-3.17,0.89,0.9700001,-1.61,-0.1,9.68,-1.55,15.375,-41.875,16.0625,14
210694,242.5,-1.125,99.0,0.3371582,0.3814697,0.6578979,0.5549316,0.25,0.375,-0.25,0.74,12.27,-1.31,0.93,2.59,0.22,-0.19,9.68,-1.53,15.375,-43.0,16.0625,14
210848,238.25,-0.625,99.125,0.3157959,0.3631592,0.6692505,0.5661011,0.0,32.3125,0.0,-1.49,7.73,-3.82,-1.38,-1.94,-2.26,-0.11,9.68,-1.56,16.0625,-42.5625,16.1875,14
211587,237.1875,-0.1875,99.0,0.3131104,0.3634033,0.6681519,0.5687256,-0.4375,-37.75,0.4375,-0.3,10.64,-1.82,-0.25,0.9599999,-0.28,-0.04,9.68,-1.53,15.0,-44.0625,17.1875,14
211745,240.8125,-0.6875,98.9375,0.3289185,0.37677,0.6602173,0.5603638,0.1875,32.3125,-0.6875,-0.1,8.0,-1.17,0.0,-1.68,0.34,-0.11,9.68,-1.52,15.375,-43.0,15.75,14
212517,237.875,-0.5,99.0,0.314209,0.3617554,0.6689453,0.5682983,0.0,0.8125,-0.375,0.09,9.66,-1.8,0.18,-0.01,-0.26,-0.09,9.68,-1.53,14.875,-43.6875,15.75,14
212676,237.8125,-0.5,99.0625,0.3139648,0.3618164,0.6692505,0.5679321,-0.25,-0.5,-0.125,-0.11,9.7,-1.49,-0.02,0.02,0.05,-0.09,9.68,-1.54,14.875,-43.6875,16.5,14
212839,237.75,-0.5,99.0625,0.3136597,0.3613892,0.6694946,0.5681152,0.0,-1.3125,0.125,-0.22,9.71,-1.63,-0.12,0.03,-0.09,-0.09,9.68,-1.54,15.25,-43.0,17.1875,14
213553,237.4375,-0.375,99.125,0.3118286,0.361084,0.6700439,0.5687256,0.0625,0.0,0.6875,0.0,9.71,-1.58,0.07,0.03,-0.03,-0.06,9.68,-1.55,14.875,-43.25,16.75,14
213716,237.375,-0.375,99.125,0.3114014,0.3608398,0.670166,0.5689697,-0.25,-0.3125,0.375,0.03,9.69,-1.72,0.09,0.01,-0.16,-0.06,9.68,-1.55,14.1875,-43.0,16.0625,14
213879,237.4375,-0.375,99.125,0.3118286,0.3613892,0.6698608,0.5686646,-0.0625,-0.0625,-0.0625,0.03,9.69,-1.63,0.09,0.01,-0.07,-0.06,9.68,-1.55,15.5625,-42.5625,16.75,14
214526,237.4375,-0.25,99.1875,0.3115845,0.3629761,0.6694946,0.5682983,-0.375,-2.1875,-2.4375,-0.14,9.7,-1.64,-0.04,0.03,0.01,-0.05,9.68,-1.56,15.25,-42.25,16.1875,14
214690,237.75,-0.5625,99.1875,0.3131714,0.3612671,0.6705322,0.5673218,-0.5,-0.125,-0.5,-0.52,9.61,-2.06,-0.42,-0.06,-0.48,-0.09,9.67,-1.57,14.875,-43.25,17.1875,14
215546,236.375,0.3125,99.1875,0.3060303,0.3641968,0.6690063,0.5710449,-2.375,-2.375,-6.75,0.13,9.72,-1.3,-0.08,0.04,0.5,0.05,9.68,-1.56,14.5,-43.25,16.875,14
215697,237.6875,-0.5,99.0625,0.3130493,0.3604736,0.6699829,0.5684204,-0.6875,-6.75,-4.0,-1.33,9.83,-1.36,-1.23,0.15,0.17,-0.1,9.68,-1.54,14.1875,-42.5625,16.5,14
215844,238.5625,-1.3125,98.9375,0.3179321,0.3561401,0.6715698,0.5665894,-0.375,3.3125,0.5,0.26,9.63,-0.76,0.49,-0.05,0.75,-0.23,9.68,-1.52,16.25,-43.0,16.0625,14
216530,237.9375,-0.875,99.1875,0.3140869,0.3588257,0.671936,0.5667114,-0.0625,0.375,0.375,0.0,9.67,-1.82,0.14,0.0,-0.24,-0.15,9.67,-1.57,15.5625,-43.25,16.1875,14
216678,237.875,-0.75,99.25,0.3134766,0.359375,0.6717529,0.5668945,-0.125,0.0,0.1875,0.06,9.7,-1.48,0.2,0.04,0.08,-0.13,9.67,-1.57,14.875,-44.0625,16.875,14
216841,237.6875,-0.625,99.25,0.3127441,0.3599854,0.6715088,0.5671997,0.0625,-0.125,-0.4375,0.02,9.69,-1.75,0.13,0.01,-0.17,-0.11,9.67,-1.57,14.875,-43.0,16.5625,14
217569,237.875,-0.6875,99.3125,0.3132324,0.3608398,0.6716309,0.5662231,0.5625,1.6875,0.8125,-0.1,9.54,-1.82,0.01,-0.13,-0.23,-0.11,9.67,-1.59,14.1875,-43.0,18.0625,14
217720,237.625,-0.5,99.375,0.3118896,0.3615723,0.6716309,0.5665283,-0.375,0.8125,1.125,-0.02,9.66,-1.7,0.2,0.04,0.13,-0.08,9.67,-1.6,14.5,-42.5625,15.875,14
217871,237.4375,-0.3125,99.3125,0.3109131,0.3622437,0.6709595,0.5673828,0.375,-0.125,0.8125,0.18,9.73,-1.35,0.24,0.05,0.24,-0.05,9.67,-1.59,14.875,-43.25,16.1875,14
218539,236.9375,0.1875,95.5,0.3205566,0.3557739,0.649231,0.5909424,-22.0625,5.9375,3.1875,0.93,9.06,-1.29,1.22,-0.02,1.55,0.04,9.76,-0.9,14.5,-43.6875,15.5,14
218692,236.625,0.375,92.3125,0.3287354,0.3469238,0.6325684,0.6094971,-20.125,0.1875,-1.25,-0.9599999,9.79,6.73,-1.03,0.0,7.09,0.06,9.79,-0.36,15.25,-45.1875,12.0,14
218847,236.9375,0.25,90.4375,0.3357544,0.3413696,0.6224365,0.6191406,-8.1875,0.0625,-0.25,-0.27,9.82,-0.2,-0.32,0.01,-0.12,0.04,9.8,-0.07,15.25,-45.1875,10.6875,14
219548,237.1875,-0.125,91.9375,0.3323364,0.3427734,0.6325684,0.6098022,6.3125,6.3125,-1.4375,-0.46,9.81,-0.03,-0.43,0.01,0.31,-0.02,9.8,-0.34,15.25,-44.875,10.1875,14
219708,237.5625,-0.1875,93.125,0.3306885,0.3476563,0.6382446,0.6019897,11.3125,2.375,0.25,-0.15,9.82,-1.58,-0.12,0.03,-1.03,-0.03,9.79,-0.55,16.0,-44.5,11.5625,14
219870,238.875,-0.25,94.9375,0.3323364,0.3588867,0.6436157,0.588623,8.8125,6.375,0.125,0.41,9.47,0.58,0.46,-0.29,1.42,-0.05,9.77,-0.84,15.25,-43.5,12.75,14
220532,238.875,-0.4375,98.5625,0.3205566,0.3674927,0.663269,0.567688,6.125,2.0,-0.9375,0.41,8.61,0.33,0.48,-1.08,1.8,-0.08,9.69,-1.48,15.5625,-43.75,15.5,14
220692,239.3125,-0.75,99.0625,0.321106,0.3674927,0.6663208,0.5638428,-5.1875,4.0,-0.375,0.92,8.36,-3.19,1.05,-1.31,-1.64,-0.13,9.68,-1.54,15.25,-43.375,15.75,14
220851,238.375,-0.5625,98.375,0.3186646,0.3620605,0.664917,0.5703125,-0.125,12.375,2.25,0.67,9.47,-0.54,0.77,-0.22,0.88,-0.1,9.7,-1.43,15.5625,-43.25,16.0625,14
221525,238.9375,-0.3125,98.8125,0.3202515,0.3696289,0.6635742,0.5661011,-0.6875,-0.375,-0.9375,-0.41,9.74,-1.49,-0.34,0.05,0.01,-0.06,9.68,-1.5,15.5625,-44.0625,15.375,14
221740,239.1875,-0.5625,98.6875,0.3218384,0.3682861,0.6633911,0.5662842,0.4375,0.1875,0.75,-0.21,9.7,-1.57,-0.11,0.01,-0.09,-0.09,9.69,-1.48,16.0,-43.25,15.75,14
222527,239.0625,-0.4375,98.75,0.3210449,0.3690796,0.6633911,0.5662231,0.0,0.0,-0.1875,-0.05,9.71,-1.53,0.01,0.02,-0.04,-0.07,9.69,-1.49,16.6875,-43.6875,16.5,14
222682,239.0625,-0.4375,98.75,0.321106,0.3690796,0.6634521,0.5661621,0.1875,-0.125,0.0,-0.2,9.71,-1.48,-0.12,0.02,0.01,-0.07,9.69,-1.49,15.25,-43.375,15.375,14
222829,239.125,-0.4375,98.75,0.321167,0.3690186,0.6635132,0.5661011,-0.125,0.1875,0.3125,-0.07,9.72,-1.49,0.0,0.03,0.0,-0.08,9.69,-1.49,15.5625,-43.375,15.0,14
223562,239.125,-0.4375,98.75,0.321167,0.3690186,0.6635132,0.5661011,0.0625,0.125,0.1875,-0.12,9.7,-1.48,-0.03,0.01,0.01,-0.08,9.69,-1.49,15.25,-43.0,15.0,14
223712,239.125,-0.4375,98.75,0.321167,0.3690186,0.6635132,0.5661011,-0.125,0.125,-0.1875,-0.11,9.73,-1.49,-0.03,0.04,0.0,-0.08,9.69,-1.49,16.0,-43.25,16.0625,14
224614,239.125,-0.4375,98.75,0.321167,0.3690186,0.6635132,0.5661011,0.0,-0.0625,-0.125,-0.03,9.7,-1.53,0.04,0.01,-0.03,-0.08,9.69,-1.49,15.25,-43.6875,15.0,14
224742,239.125,-0.4375,98.75,0.321167,0.3690186,0.6635132,0.5661011,-0.0625,0.1875,-0.3125,-0.08,9.69,-1.64,0.0,0.0,-0.14,-0.08,9.69,-1.49,15.25,-43.0,15.75,14
224874,239.125,-0.4375,98.75,0.321167,0.3690186,0.6635132,0.5661011,0.125,-0.0625,0.125,-0.13,9.69,-1.55,-0.04,0.0,-0.05,-0.08,9.69,-1.49,15.25,-43.375,15.0,14
225544,239.125,-0.4375,98.75,0.321167,0.3690186,0.6635132,0.5661011,-0.125,-0.0625,-0.125,-0.07,9.71,-1.57,0.0,0.02,-0.07,-0.08,9.69,-1.49,15.25,-43.0,16.0625,14
225672,239.125,-0.4375,98.75,0.321167,0.3690186,0.6635132,0.5661011,-0.0625,0.125,-0.125,-0.05,9.74,-1.5,0.02,0.05,0.0,-0.08,9.69,-1.49,16.0,-43.0,15.0,14
225805,239.125,-0.4375,98.75,0.321167,0.3690186,0.6635132,0.5661011,0.0,-0.0625,-0.125,-0.1,9.7,-1.51,-0.02,0.01,-0.01,-0.08,9.69,-1.49,14.875,-43.0,15.375,14
226537,239.125,-0.4375,98.75,0.321167,0.3690186,0.6635132,0.5661011,-0.125,0.25,0.1875,-0.03,9.7,-1.51,0.05,0.01,-0.02,-0.08,9.69,-1.49,15.5625,-43.6875,15.0,14
226667,239.125,-0.4375,98.75,0.321167,0.3690186,0.6635132,0.5661011,0.0,-0.1875,-0.4375,-0.08,9.73,-1.42,0.0,0.04,0.07,-0.08,9.69,-1.49,15.25,-43.375,14.25,14
226803,239.125,-0.4375,98.75,0.321167,0.3690186,0.6635132,0.5661011,-0.0625,0.1875,-0.3125,-0.15,9.71,-1.41,-0.07,0.02,0.07,-0.08,9.69,-1.49,15.5625,-43.6875,15.75,14
227577,239.0625,-0.4375,98.75,0.3210449,0.3689575,0.6635132,0.5661621,0.125,0.125,0.125,-0.03,9.72,-1.48,0.04,0.03,0.01,-0.08,9.69,-1.49,16.25,-43.25,15.375,14
227714,239.0625,-0.4375,98.75,0.3210449,0.3689575,0.6635132,0.5661621,-0.1875,-0.125,-0.25,-0.03,9.69,-1.58,0.04,0.0,-0.08,-0.08,9.69,-1.49,16.0,-43.0,15.375,14
227856,239.0625,-0.4375,98.75,0.3210449,0.3689575,0.6635132,0.5661621,0.0625,0.0,-0.25,-0.15,9.73,-1.4,-0.06,0.04,0.08,-0.08,9.69,-1.49,16.0,-43.25,15.75,14
228520,239.0625,-0.4375,98.75,0.3210449,0.3689575,0.6635132,0.5661621,-0.125,0.4375,0.0,-0.15,9.7,-1.46,-0.07,0.01,0.03,-0.08,9.69,-1.49,15.25,-43.0,15.75,14
228659,239.0625,-0.4375,98.75,0.3210449,0.3689575,0.6635132,0.5661621,0.125,-0.0625,0.0,-0.03,9.69,-1.5,0.05,0.0,-0.01,-0.08,9.69,-1.49,15.5625,-43.0,15.75,14
228802,239.0625,-0.4375,98.75,0.3210449,0.3689575,0.6635132,0.5661621,-0.125,-0.0625,-0.25,-0.08,9.69,-1.53,0.0,0.0,-0.03,-0.08,9.69,-1.49,15.5625,-43.6875,15.375,14
229542,239.0625,-0.4375,98.75,0.3210449,0.3689575,0.6635132,0.5661621,0.125,0.0,0.0,-0.03,9.69,-1.48,0.05,0.0,0.01,-0.08,9.69,-1.49,16.25,-43.0,14.5625,14
229686,239.0625,-0.4375,98.75,0.3210449,0.3689575,0.6635132,0.5661621,-0.125,0.1875,-0.125,-0.09,9.72,-1.54,-0.01,0.03,-0.04,-0.08,9.69,-1.49,16.0,-43.375,15.75,14
229838,239.0625,-0.4375,98.75,0.3210449,0.3689575,0.6635132,0.5661621,0.375,-0.1875,-0.0625,-0.11,9.71,-1.59,-0.03,0.02,-0.09,-0.08,9.69,-1.49,16.0,-43.375,15.0,14
230517,239.0625,-0.4375,98.75,0.3210449,0.3689575,0.6635132,0.5661621,-0.1875,-0.1875,0.0,-0.13,9.72,-1.4,-0.05,0.03,0.08,-0.08,9.69,-1.49,16.0,-43.6875,15.75,14
230666,239.0625,-0.4375,98.75,0.3210449,0.3689575,0.6635132,0.5661621,0.375,0.0625,-0.0625,-0.07,9.67,-1.64,0.0,0.0,-0.11,-0.08,9.69,-1.49,16.25,-42.5625,15.75,14
230816,239.0625,-0.4375,98.75,0.3210449,0.3689575,0.6635132,0.5661621,-0.0625,0.0625,-0.25,-0.1,9.74,-1.4,0.0,0.0,-0.04,-0.08,9.69,-1.49,15.5625,-43.25,15.75,14
231559,239.0625,-0.4375,98.75,0.3210449,0.3689575,0.6635132,0.5661621,-0.125,-0.125,-0.0625,-0.05,9.71,-1.59,0.02,0.02,-0.09,-0.08,9.69,-1.49,16.25,-43.375,15.375,14
231710,239.0625,-0.4375,98.75,0.3210449,0.3689575,0.6635132,0.5661621,-0.125,-0.0625,-0.0625,-0.06,9.73,-1.43,0.01,0.04,0.06,-0.08,9.69,-1.49,16.0,-43.375,15.75,14
232558,239.0625,-0.4375,98.75,0.3210449,0.3689575,0.6635132,0.5661621,0.125,-0.0625,-0.0625,-0.11,9.73,-1.49,-0.04,0.01,-0.04,-0.08,9.69,-1.49,16.25,-44.375,15.0,14
232712,239.0625,-0.4375,98.75,0.3210449,0.3689575,0.6635132,0.5661621,-0.125,-0.3125,0.1875,-0.07,9.7,-1.49,0.0,0.01,0.0,-0.08,9.69,-1.49,16.25,-43.6875,16.0625,14
232869,239.0625,-0.4375,98.75,0.3210449,0.3689575,0.6635132,0.5661621,0.0625,-0.0625,0.0,-0.07,9.71,-1.7,-0.04,0.0,-0.16,-0.08,9.69,-1.49,15.5625,-42.5625,15.0,14
233532,239.0625,-0.4375,98.75,0.3210449,0.3689575,0.6635132,0.5661621,0.125,-0.25,0.0625,-0.14,9.7,-1.45,-0.06,0.01,0.04,-0.08,9.69,-1.49,15.5625,-43.25,15.375,14
233682,239.0625,-0.4375,98.75,0.3210449,0.3689575,0.6635132,0.5661621,-0.125,0.25,0.0625,-0.15,9.73,-1.4,-0.01,0.03,0.0,-0.08,9.69,-1.49,15.5625,-43.6875,15.0,14
233816,239.0625,-0.4375,98.75,0.3210449,0.3689575,0.6635132,0.5661621,0.125,0.1875,0.0,-0.04,9.7,-1.62,0.03,0.01,-0.13,-0.08,9.69,-1.49,16.0,-42.25,16.0625,14
234534,239.0625,-0.4375,98.75,0.3210449,0.3689575,0.6635132,0.5661621,0.0,-0.0625,0.0625,-0.1,9.72,-1.4,-0.02,0.03,0.08,-0.08,9.69,-1.49,16.0,-43.0,14.5625,14
234671,239.0625,-0.4375,98.75,0.3210449,0.3689575,0.6635132,0.5661621,0.0625,-0.125,0.125,-0.03,9.69,-1.67,0.03,0.0,-0.11,-0.08,9.69,-1.49,15.25,-43.0,15.375,14
234807,239.0625,-0.4375,98.75,0.3210449,0.3689575,0.6635132,0.5661621,-0.0625,-0.0625,-0.1875,-0.1,9.74,-1.31,-0.02,0.05,0.18,-0.08,9.69,-1.49,15.25,-43.6875,15.0,14
235583,239.0625,-0.4375,98.75,0.3210449,0.3689575,0.6635132,0.5661621,0.125,-0.0625,-0.0625,-0.07,9.71,-1.58,0.0,0.0,-0.1,-0.08,9.69,-1.49,15.5625,-43.0,15.75,14
235723,239.0625,-0.4375,98.75,0.3210449,0.3689575,0.6635132,0.5661621,0.0625,0.0,0.125,-0.12,9.71,-1.56,-0.03,0.02,-0.06,-0.08,9.69,-1.49,15.25,-43.6875,16.0625,14
236518,239.0625,-0.4375,98.75,0.3210449,0.3689575,0.6635132,0.5661621,-0.0625,-0.25,0.0,-0.16,9.69,-1.57,-0.08,0.0,-0.07,-0.08,9.69,-1.49,15.5625,-44.0625,15.75,14
236667,239.0625,-0.4375,98.75,0.3210449,0.3689575,0.6635132,0.5661621,-0.0625,-0.125,0.125,-0.15,9.72,-1.38,-0.07,0.03,0.11,-0.08,9.69,-1.49,15.25,-43.375,15.375,14
236824,239.0625,-0.4375,98.75,0.3210449,0.3689575,0.6635132,0.5661621,-0.125,0.0,-0.0625,-0.11,9.69,-1.54,-0.02,0.05,0.1,-0.08,9.69,-1.49,16.0,-43.0,16.0625,14
237557,239.0625,-0.4375,98.75,0.3210449,0.3689575,0.6635132,0.5661621,0.0625,-0.25,0.1875,-0.07,9.7,-1.54,0.0,0.01,-0.04,-0.08,9.69,-1.49,14.875,-43.375,15.75,14
237712,239.0625,-0.4375,98.75,0.3210449,0.3689575,0.6635132,0.5661621,0.125,-0.1875,-0.125,-0.12,9.69,-1.58,-0.03,0.0,-0.08,-0.08,9.69,-1.49,14.875,-44.0625,15.75,14
237859,239.0625,-0.4375,98.75,0.3210449,0.3689575,0.6635132,0.5661621,0.0625,-0.0625,-0.0625,-0.09,9.69,-1.57,-0.01,0.0,-0.07,-0.08,9.69,-1.49,16.0,-42.25,16.0625,14
238527,239.0625,-0.4375,98.75,0.3210449,0.3689575,0.6635132,0.5661621,-0.0625,0.125,-0.25,-0.08,9.72,-1.48,0.0,0.03,0.01,-0.08,9.69,-1.49,15.5625,-43.6875,14.25,14
238677,239.0625,-0.4375,98.75,0.3210449,0.3689575,0.6635132,0.5661621,0.0,0.0625,0.125,-0.05,9.71,-1.63,0.0,0.02,-0.07,-0.08,9.69,-1.49,16.25,-43.6875,15.375,14
238827,239.0625,-0.4375,98.75,0.3210449,0.3689575,0.6635132,0.5661621,-0.0625,0.125,-0.0625,-0.01,9.7,-1.46,0.05,0.02,-0.02,-0.08,9.69,-1.49,16.0,-43.0,15.75,14
239561,239.0625,-0.4375,98.75,0.3210449,0.3689575,0.6635132,0.5661621,-0.0625,0.3125,0.4375,-0.03,9.72,-1.44,0.04,0.03,0.05,-0.08,9.69,-1.49,16.0,-44.0625,15.375,14
239716,239.0625,-0.4375,98.75,0.3210449,0.3689575,0.6635132,0.5661621,0.0625,-0.0625,-0.4375,-0.07,9.71,-1.54,0.0,0.02,-0.04,-0.08,9.69,-1.49,14.875,-42.5625,15.375,14
240554,239.0625,-0.4375,98.75,0.3210449,0.3689575,0.6635132,0.5661621,0.0,-0.125,-0.25,-0.11,9.73,-1.34,-0.03,0.04,0.15,-0.08,9.69,-1.49,15.5625,-43.375,15.375,14
240707,239.0625,-0.4375,98.75,0.321106,0.3688965,0.6635742,0.5661011,-0.0625,0.125,-0.0625,-0.08,9.72,-1.58,0.0,0.03,-0.08,-0.08,9.69,-1.49,15.5625,-43.6875,15.75,14
240862,239.0625,-0.4375,98.75,0.321106,0.3688965,0.6635742,0.5661011,0.375,-0.125,-0.0625,-0.16,9.69,-1.62,-0.08,0.0,-0.13,-0.08,9.69,-1.49,15.5625,-43.375,15.375,14
241596,239.0625,-0.4375,98.75,0.321106,0.3688965,0.6635742,0.5661011,0.0625,0.1875,-0.25,-0.1,9.7,-1.45,-0.01,0.01,0.04,-0.08,9.69,-1.49,16.25,-43.0,15.0,14
241754,239.0625,-0.4375,98.75,0.321106,0.3688965,0.6635742,0.5661011,0.1875,-0.125,0.1875,-0.18,9.7,-1.58,-0.1,0.01,-0.08,-0.08,9.69,-1.49,15.5625,-43.6875,14.5625,14
242590,239.0625,-0.4375,98.75,0.321106,0.3688965,0.6635742,0.5661011,-0.0625,0.0,-0.1875,-0.13,9.7,-1.44,-0.04,0.01,0.05,-0.08,9.69,-1.49,15.25,-41.875,16.0625,14
242790,239.0625,-0.4375,98.75,0.321106,0.3688965,0.6635742,0.5661011,0.0625,-0.0625,0.3125,-0.12,9.69,-1.57,-0.04,0.0,-0.07,-0.08,9.69,-1.49,16.0,-43.375,15.0,14
243596,239.0625,-0.4375,98.75,0.321106,0.3688965,0.6635742,0.5661011,-0.125,0.0,0.0,-0.06,9.71,-1.56,0.01,0.02,-0.06,-0.08,9.69,-1.49,16.6875,-43.0,16.75,14
243735,239.0625,-0.4375,98.75,0.321106,0.3688965,0.6635742,0.5661011,0.0,-0.1875,-0.125,-0.11,9.69,-1.48,-0.03,0.0,0.01,-0.08,9.69,-1.49,16.6875,-42.5625,15.375,14
243874,239.0625,-0.4375,98.75,0.321106,0.3688965,0.6635742,0.5661011,-0.1875,-0.125,-0.25,-0.14,9.72,-1.41,-0.05,0.03,0.08,-0.08,9.69,-1.49,15.5625,-43.375,15.375,14
244526,239.0625,-0.4375,98.75,0.321106,0.3688965,0.6635742,0.5661011,-0.0625,-0.0625,-0.0625,-0.07,9.7,-1.45,0.0,0.01,0.04,-0.08,9.69,-1.49,15.5625,-43.6875,15.375,14
244669,239.0625,-0.4375,98.75,0.321106,0.3688965,0.6635742,0.5661011,0.1875,-0.0625,0.0625,-0.09,9.69,-1.48,-0.01,0.0,0.01,-0.08,9.69,-1.49,15.5625,-43.6875,15.6875,14
244815,239.0625,-0.4375,98.75,0.321106,0.3688965,0.6635742,0.5661011,-0.25,0.0625,0.1875,-0.05,9.72,-1.44,0.02,0.03,0.05,-0.08,9.69,-1.49,16.0,-43.6875,15.0,14
245554,239.0625,-0.4375,98.75,0.321106,0.3688965,0.6635742,0.5661011,0.125,0.0625,0.125,-0.06,9.7,-1.57,0.01,0.01,-0.07,-0.08,9.69,-1.49,16.0,-42.5625,15.0,14
245700,239.0625,-0.4375,98.75,0.321106,0.3688965,0.6635742,0.5661011,-0.0625,0.0,0.0,-0.09,9.71,-1.44,-0.01,0.02,0.05,-0.08,9.69,-1.49,16.25,-44.75,15.0,14
245849,239.0625,-0.4375,98.75,0.321106,0.3688965,0.6635742,0.5661011,0.125,0.0625,0.0,-0.04,9.69,-1.6,0.03,0.0,-0.1,-0.08,9.69,-1.49,15.25,-43.375,14.25,14
246522,239.0625,-0.4375,98.75,0.321106,0.3688965,0.6635742,0.5661011,0.125,0.0,0.0,-0.14,9.69,-1.61,-0.05,0.0,-0.11,-0.08,9.69,-1.49,16.0,-43.0,15.0,14
246671,239.0625,-0.4375,98.75,0.321106,0.3688965,0.6635742,0.5661011,0.0,0.0625,0.1875,-0.07,9.71,-1.46,0.0,0.02,0.03,-0.08,9.69,-1.49,15.25,-43.375,15.75,14
246821,239.0625,-0.4375,98.75,0.321106,0.3688965,0.6635742,0.5661011,-0.125,-0.0625,-0.0625,-0.04,9.72,-1.58,0.03,0.03,-0.08,-0.08,9.69,-1.49,15.5625,-44.0625,15.6875,14
247569,239.0625,-0.4375,98.75,0.321106,0.3688965,0.6635742,0.5661011,0.3125,0.25,0.1875,-0.1,9.68,-1.61,-0.01,-0.01,-0.11,-0.08,9.69,-1.49,16.25,-43.6875,15.0,14
247720,239.0625,-0.4375,98.75,0.321106,0.3688965,0.6635742,0.5661011,-0.125,0.0,0.0,-0.03,9.71,-1.54,0.04,0.02,-0.04,-0.08,9.69,-1.49,16.6875,-43.6875,15.375,14
248561,239.0625,-0.4375,98.75,0.321106,0.3688965,0.6635742,0.5661011,0.0,0.0,0.0625,-0.09,9.69,-1.48,-0.01,0.0,0.01,-0.08,9.69,-1.49,16.25,-43.0,15.6875,14
248713,239.0625,-0.4375,98.75,0.321106,0.3688965,0.6635742,0.5661011,-0.0625,0.1875,-0.125,-0.07,9.69,-1.54,0.0,0.0,-0.04,-0.08,9.69,-1.49,15.5625,-43.0,15.375,14
248866,239.0625,-0.4375,98.75,0.321106,0.3688965,0.6635742,0.5661011,0.125,0.0,0.0625,-0.1,9.69,-1.54,-0.02,0.0,-0.04,-0.08,9.69,-1.49,16.25,-43.375,15.75,14
249538,239.0625,-0.4375,98.75,0.321106,0.3688965,0.6635742,0.5661011,-0.0625,-0.1875,-0.125,-0.15,9.74,-1.43,-0.06,0.05,0.06,-0.08,9.69,-1.49,16.0,-42.25,16.0625,14
249700,239.0625,-0.4375,98.75,0.321106,0.3688965,0.6635742,0.5661011,0.0,0.0625,0.0,-0.08,9.72,-1.44,0.0,0.03,0.05,-0.08,9.69,-1.49,16.0,-41.875,15.0,14
249857,239.0625,-0.4375,98.75,0.321106,0.3688965,0.6635742,0.5661011,0.0625,-0.0625,0.0,-0.12,9.72,-1.44,-0.04,0.03,0.05,-0.08,9.69,-1.49,16.0,-42.5625,15.75,14
250541,239.0625,-0.4375,98.75,0.321106,0.3688965,0.6635742,0.5661011,-0.0625,-0.125,0.0,-0.11,9.71,-1.52,-0.02,0.02,-0.03,-0.08,9.69,-1.49,15.5625,-43.6875,16.0625,14
250700,239.0625,-0.4375,98.75,0.321106,0.3688965,0.6635742,0.5661011,0.125,0.125,-0.0625,-0.08,9.7,-1.47,0.0,0.01,0.02,-0.08,9.69,-1.49,16.25,-43.375,15.375,14
250860,239.0625,-0.4375,98.75,0.321106,0.3688965,0.6635742,0.5661011,-0.0625,0.0,0.1875,-0.12,9.74,-1.44,-0.04,0.05,0.05,-0.08,9.69,-1.49,15.25,-43.375,15.375,14
251586,239.0625,-0.4375,98.75,0.321106,0.3688965,0.6635742,0.5661011,0.0625,0.0625,0.125,-0.06,9.71,-1.6,0.01,0.02,-0.1,-0.08,9.69,-1.49,15.25,-43.0,15.375,14
251797,239.0625,-0.4375,98.75,0.321106,0.3688965,0.6635742,0.5661011,0.0,-0.125,0.0,-0.01,9.71,-1.51,0.06,0.02,-0.01,-0.08,9.69,-1.49,14.875,-42.5625,14.5625,14
252522,239.0625,-0.4375,98.75,0.321106,0.3688965,0.6635742,0.5661011,-0.0625,-0.25,0.125,-0.07,9.71,-1.43,0.0,0.02,0.06,-0.08,9.69,-1.49,15.5625,-43.375,15.0,14
252665,239.0625,-0.4375,98.75,0.321106,0.3688965,0.6635742,0.5661011,0.0625,-0.125,0.0,-0.06,9.69,-1.55,0.0,0.0,-0.13,-0.08,9.69,-1.49,16.0,-44.0625,15.75,14
252811,239.0625,-0.4375,98.75,0.321106,0.3688965,0.6635742,0.5661011,-0.0625,-0.25,-0.0625,-0.1,9.72,-1.43,-0.02,0.03,0.06,-0.08,9.69,-1.49,16.0,-43.0,15.6875,14
253555,239.0625,-0.4375,98.75,0.321106,0.3688965,0.6635742,0.5661011,-0.125,0.0,0.0,-0.05,9.71,-1.44,0.02,0.02,0.05,-0.08,9.69,-1.49,15.5625,-42.25,15.375,14
253702,239.0625,-0.4375,98.75,0.321106,0.3688965,0.6635742,0.5661011,0.0625,-0.1875,0.0,-0.11,9.7,-1.61,-0.02,0.01,-0.11,-0.08,9.69,-1.49,16.25,-42.25,16.0625,14
253848,239.0625,-0.4375,98.75,0.321106,0.3688965,0.6635742,0.5661011,0.0,0.0,-0.125,-0.12,9.71,-1.46,-0.04,0.02,0.03,-0.08,9.69,-1.49,15.5625,-42.5625,15.6875,14
254527,239.0625,-0.4375,98.75,0.321106,0.3688965,0.6635742,0.5661011,0.0,-0.125,0.0,-0.12,9.7,-1.53,-0.01,0.0,-0.1,-0.08,9.69,-1.49,15.25,-42.5625,16.0625,14
254675,239.0625,-0.4375,98.75,0.321106,0.3688965,0.6635742,0.5661011,-0.0625,0.125,0.0625,-0.06,9.71,-1.47,0.01,0.02,0.02,-0.08,9.69,-1.49,16.0,-42.5625,15.375,14
254827,239.0625,-0.4375,98.75,0.321106,0.3688965,0.6635742,0.5661011,0.0,-0.1875,-0.0625,-0.06,9.7,-1.5,0.0,0.02,0.0,-0.08,9.69,-1.49,16.0,-43.0,15.0,14
255569,239.0625,-0.4375,98.75,0.321106,0.3688965,0.6635742,0.5661011,0.125,0.125,0.0625,-0.08,9.72,-1.49,-0.02,0.02,-0.09,-0.08,9.69,-1.49,15.25,-43.375,15.6875,14
255724,239.0625,-0.4375,98.75,0.321106,0.3688965,0.6635742,0.5661011,-0.0625,0.125,-0.0625,-0.08,9.7,-1.43,0.0,0.01,0.06,-0.08,9.69,-1.49,14.875,-43.0,16.0625,14
255878,239.0625,-0.4375,98.75,0.321106,0.3688965,0.6635742,0.5661011,0.0625,-0.125,0.0625,-0.13,9.7,-1.61,-0.05,0.01,-0.11,-0.08,9.69,-1.49,16.25,-42.5625,14.5625,14
256542,239.0625,-0.4375,98.75,0.321106,0.3688965,0.6635742,0.5661011,0.0625,0.0,0.0625,-0.04,9.7,-1.52,0.03,0.01,-0.03,-0.08,9.69,-1.49,16.6875,-43.0,15.6875,14
256698,239.0625,-0.4375,98.75,0.321106,0.3688965,0.6635742,0.5661011,-0.125,0.25,0.125,-0.02,9.7,-1.53,0.05,0.01,-0.03,-0.08,9.69,-1.49,16.0,-43.6875,16.0625,14
256856,239.0625,-0.4375,98.75,0.321106,0.3688965,0.6635742,0.5661011,0.125,-0.0625,0.0625,-0.1,9.71,-1.5,-0.02,0.02,0.0,-0.08,9.69,-1.49,15.25,-42.5625,15.375,14
257534,239.0625,-0.4375,98.75,0.321106,0.3688965,0.6635742,0.5661011,0.1875,0.0625,0.0625,-0.11,9.72,-1.53,-0.02,0.03,-0.03,-0.08,9.69,-1.49,16.25,-43.0,15.0,14
257694,239.0625,-0.4375,98.75,0.321106,0.3688965,0.6635742,0.5661011,-0.125,-0.125,-0.0625,-0.04,9.7,-1.53,0.03,0.01,-0.03,-0.08,9.69,-1.49,15.25,-43.375,15.375,14
257858,239.0625,-0.4375,98.75,0.321106,0.3688965,0.6635742,0.5661011,0.125,-0.0625,-0.1875,-0.1,9.69,-1.48,-0.02,0.0,0.01,-0.08,9.69,-1.49,15.5625,-43.0,15.6875,14
258534,239.0625,-0.4375,98.75,0.321106,0.3688965,0.6635742,0.5661011,0.0,-0.1875,-0.125,-0.07,9.71,-1.51,0.0,0.02,-0.02,-0.08,9.69,-1.49,15.5625,-43.375,16.5,14
258694,239.0625,-0.4375,98.75,0.321106,0.3688965,0.6635742,0.5661011,0.125,0.0,0.125,-0.09,9.71,-1.6,-0.01,0.02,-0.1,-0.08,9.69,-1.49,14.875,-43.6875,15.0,14
258857,239.0625,-0.4375,98.75,0.321106,0.3688965,0.6635742,0.5661011,-0.0625,0.1875,0.0625,-0.07,9.69,-1.51,0.0,0.0,-0.01,-0.08,9.69,-1.49,16.25,-43.0,16.0625,14
259545,239.0625,-0.4375,98.75,0.321106,0.3688965,0.6635742,0.5661011,-0.0625,-0.0625,0.0625,-0.11,9.69,-1.53,-0.03,0.0,-0.03,-0.08,9.69,-1.49,15.5625,-42.5625,15.0,14
259715,239.0625,-0.4375,98.75,0.321106,0.3688965,0.6635742,0.5661011,0.0625,-0.0625,0.0,-0.08,9.72,-1.53,0.0,0.03,-0.03,-0.08,9.69,-1.49,15.5625,-42.5625,16.0625,14
259879,239.0625,-0.4375,98.75,0.321106,0.3688965,0.6635742,0.5661011,-0.0625,-0.0625,-0.1875,-0.12,9.69,-1.46,-0.04,0.0,0.03,-0.08,9.69,-1.49,16.0,-43.0,16.0625,14
260519,239.0625,-0.4375,98.75,0.321106,0.3688965,0.6635742,0.5661011,0.0,0.1875,-0.0625,-0.05,9.7,-1.5,0.02,0.01,0.0,-0.08,9.69,-1.49,17.0625,-43.0,15.375,14
260730,239.0625,-0.4375,98.75,0.321106,0.3688965,0.6635742,0.5661011,0.0,-0.0625,0.125,-0.12,9.7,-1.5,-0.04,0.01,0.0,-0.08,9.69,-1.49,16.25,-43.375,15.375,14
260877,239.0625,-0.4375,98.75,0.321106,0.3688965,0.6635742,0.5661011,0.0625,-0.0625,0.25,-0.08,9.69,-1.54,0.0,0.0,-0.04,-0.08,9.69,-1.49,15.5625,-43.0,15.6875,14
261522,239.0625,-0.4375,98.75,0.321106,0.3688965,0.6635742,0.5661011,0.0,0.0,-0.0625,-0.11,9.69,-1.49,-0.03,0.0,0.0,-0.08,9.69,-1.49,16.25,-42.5625,16.0625,14
261674,239.0625,-0.4375,98.75,0.321106,0.3688965,0.6635742,0.5661011,0.0,0.125,-0.125,-0.06,9.71,-1.49,0.01,0.02,0.0,-0.08,9.69,-1.49,15.5625,-43.0,16.0625,14
261824,239.0625,-0.4375,98.75,0.321106,0.3688965,0.6635742,0.5661011,0.0,-0.125,0.0,-0.06,9.7,-1.5,0.01,0.01,-0.01,-0.08,9.69,-1.49,16.0,-42.25,15.6875,14
262527,239.0625,-0.4375,98.75,0.321106,0.3688965,0.6635742,0.5661011,0.0,0.0,0.0625,-0.07,9.7,-1.49,0.0,0.01,0.0,-0.08,9.69,-1.49,16.0,-43.0,15.6875,14
262678,239.0625,-0.4375,98.75,0.321106,0.3688965,0.6635742,0.5661011,0.0625,0.0,-0.125,-0.07,9.69,-1.52,0.0,0.03,-0.04,-0.08,9.69,-1.49,16.0,-43.0,15.0,14
262828,239.0625,-0.4375,98.75,0.321106,0.3688965,0.6635742,0.5661011,0.0625,0.0,0.0625,-0.07,9.72,-1.48,-0.01,0.0,-0.01,-0.08,9.69,-1.49,16.25,-43.0,15.375,14
